8/27/2025	2:04:04 PM	2:04:06 PM	2:04:10 PM
LuQY (%)	0.420000	0.421000	0.419000
QFLS (eV)	0.895000	0.890000	0.886000
QFLS confidence	1.000000	1.000000	1.000000
Laser intensity (mW/cm²)	1.033000	0.835000	0.729000
Bias voltage (V)	0.000000	0.000000	0.000000
SMU current density (mA/cm2)	0.000000	0.000000	0.000000
Integration Time (ms)	165.000000	165.000000	165.000000
Delay time (s)	0.000000	0.000000	0.000000
Bandgap (eV) 	1.423000	1.423000	1.423000
Jsc (mA/cm2)	26.806000	26.806000	26.806000
EQE @ laser wavelength	0.900000	0.900000	0.900000
Laser spot size (cm²)	0.400000	0.400000	0.400000
Subcell area (cm²)	1.000000	1.000000	1.000000
Subcell	--	--	--
----------------------------  			
Wavelength (nm)	Luminescence Flux Density (photons/s/cm²/nm)		
			
550.033	0.000	0.000	0.000
550.412	0.000	0.000	0.000
550.791	0.000	0.000	0.000
551.169	0.000	0.000	0.000
551.548	0.000	0.000	0.000
551.927	0.000	0.000	0.000
552.305	0.000	0.000	0.000
552.684	0.000	0.000	0.000
553.062	0.000	0.000	0.000
553.441	0.000	0.000	0.000
553.819	0.000	0.000	0.000
554.197	0.000	0.000	0.000
554.576	0.000	0.000	0.000
554.954	0.000	0.000	0.000
555.332	0.000	0.000	0.000
555.710	0.000	0.000	0.000
556.088	0.000	0.000	0.000
556.466	0.000	0.000	0.000
556.844	0.000	0.000	0.000
557.222	0.000	0.000	0.000
557.600	0.000	0.000	0.000
557.978	0.000	0.000	0.000
558.356	0.000	0.000	0.000
558.734	0.000	0.000	0.000
559.112	0.000	0.000	0.000
559.489	0.000	0.000	0.000
559.867	0.000	0.000	0.000
560.245	0.000	0.000	0.000
560.622	0.000	0.000	0.000
561.000	0.000	0.000	0.000
561.377	0.000	0.000	0.000
561.755	0.000	0.000	0.000
562.132	0.000	0.000	0.000
562.510	0.000	0.000	0.000
562.887	0.000	0.000	0.000
563.264	0.000	0.000	0.000
563.641	0.000	0.000	0.000
564.018	0.000	0.000	0.000
564.396	0.000	0.000	0.000
564.773	0.000	0.000	0.000
565.150	0.000	0.000	0.000
565.527	0.000	0.000	0.000
565.904	0.000	0.000	0.000
566.281	0.000	0.000	0.000
566.657	0.000	0.000	0.000
567.034	0.000	0.000	0.000
567.411	0.000	0.000	0.000
567.788	0.000	0.000	0.000
568.165	0.000	0.000	0.000
568.541	0.000	0.000	0.000
568.918	0.000	0.000	0.000
569.294	0.000	0.000	0.000
569.671	0.000	0.000	0.000
570.047	0.000	0.000	0.000
570.424	0.000	0.000	0.000
570.800	0.000	0.000	0.000
571.176	0.000	0.000	0.000
571.553	0.000	0.000	0.000
571.929	0.000	0.000	0.000
572.305	0.000	0.000	0.000
572.681	0.000	0.000	0.000
573.057	0.000	0.000	0.000
573.433	0.000	0.000	0.000
573.809	0.000	0.000	0.000
574.185	0.000	0.000	0.000
574.561	0.000	0.000	0.000
574.937	0.000	0.000	0.000
575.313	0.000	0.000	0.000
575.689	0.000	0.000	0.000
576.064	0.000	0.000	0.000
576.440	0.000	0.000	0.000
576.816	0.000	0.000	0.000
577.191	0.000	0.000	0.000
577.567	0.000	0.000	0.000
577.942	0.000	0.000	0.000
578.318	0.000	0.000	0.000
578.693	0.000	0.000	0.000
579.069	0.000	0.000	0.000
579.444	0.000	0.000	0.000
579.819	0.000	0.000	0.000
580.195	0.000	0.000	0.000
580.570	0.000	0.000	0.000
580.945	0.000	0.000	0.000
581.320	0.000	0.000	0.000
581.695	0.000	0.000	0.000
582.070	0.000	0.000	0.000
582.445	0.000	0.000	0.000
582.820	0.000	0.000	0.000
583.195	0.000	0.000	0.000
583.570	0.000	0.000	0.000
583.944	0.000	0.000	0.000
584.319	0.000	0.000	0.000
584.694	0.000	0.000	0.000
585.069	0.000	0.000	0.000
585.443	0.000	0.000	0.000
585.818	0.000	0.000	0.000
586.192	0.000	0.000	0.000
586.567	0.000	0.000	0.000
586.941	0.000	0.000	0.000
587.315	0.000	0.000	0.000
587.690	0.000	0.000	0.000
588.064	0.000	0.000	0.000
588.438	0.000	0.000	0.000
588.812	0.000	0.000	0.000
589.187	0.000	0.000	0.000
589.561	0.000	0.000	0.000
589.935	0.000	0.000	0.000
590.309	0.000	0.000	0.000
590.683	0.000	0.000	0.000
591.057	0.000	0.000	0.000
591.430	0.000	0.000	0.000
591.804	0.000	0.000	0.000
592.178	0.000	0.000	0.000
592.552	0.000	0.000	0.000
592.925	0.000	0.000	0.000
593.299	0.000	0.000	0.000
593.673	0.000	0.000	0.000
594.046	0.000	0.000	0.000
594.420	0.000	0.000	0.000
594.793	0.000	0.000	0.000
595.167	0.000	0.000	0.000
595.540	0.000	0.000	0.000
595.913	0.000	0.000	0.000
596.287	0.000	0.000	0.000
596.660	0.000	0.000	0.000
597.033	0.000	0.000	0.000
597.406	0.000	0.000	0.000
597.779	0.000	0.000	0.000
598.152	0.000	0.000	0.000
598.525	0.000	0.000	0.000
598.898	0.000	0.000	0.000
599.271	0.000	0.000	0.000
599.644	0.000	0.000	0.000
600.017	0.000	0.000	0.000
600.389	0.000	0.000	0.000
600.762	0.000	0.000	0.000
601.135	0.000	0.000	0.000
601.508	0.000	0.000	0.000
601.880	0.000	0.000	0.000
602.253	0.000	0.000	0.000
602.625	0.000	0.000	0.000
602.998	0.000	0.000	0.000
603.370	0.000	0.000	0.000
603.742	0.000	0.000	0.000
604.115	0.000	0.000	0.000
604.487	0.000	0.000	0.000
604.859	0.000	0.000	0.000
605.231	0.000	0.000	0.000
605.603	0.000	0.000	0.000
605.975	0.000	0.000	0.000
606.347	0.000	0.000	0.000
606.719	0.000	0.000	0.000
607.091	0.000	0.000	0.000
607.463	0.000	0.000	0.000
607.835	0.000	0.000	0.000
608.207	0.000	0.000	0.000
608.579	0.000	0.000	0.000
608.950	0.000	0.000	0.000
609.322	0.000	0.000	0.000
609.694	0.000	0.000	0.000
610.065	0.000	0.000	0.000
610.437	0.000	0.000	0.000
610.808	0.000	0.000	0.000
611.179	0.000	0.000	0.000
611.551	0.000	0.000	0.000
611.922	0.000	0.000	0.000
612.293	0.000	0.000	0.000
612.665	0.000	0.000	0.000
613.036	0.000	0.000	0.000
613.407	0.000	0.000	0.000
613.778	0.000	0.000	0.000
614.149	0.000	0.000	0.000
614.520	0.000	0.000	0.000
614.891	0.000	0.000	0.000
615.262	0.000	0.000	0.000
615.633	0.000	0.000	0.000
616.004	0.000	0.000	0.000
616.374	0.000	0.000	0.000
616.745	0.000	0.000	0.000
617.116	0.000	0.000	0.000
617.486	0.000	0.000	0.000
617.857	0.000	0.000	0.000
618.228	0.000	0.000	0.000
618.598	0.000	0.000	0.000
618.968	0.000	0.000	0.000
619.339	0.000	0.000	0.000
619.709	0.000	0.000	0.000
620.079	0.000	0.000	0.000
620.450	0.000	0.000	0.000
620.820	0.000	0.000	0.000
621.190	0.000	0.000	0.000
621.560	0.000	0.000	0.000
621.930	0.000	0.000	0.000
622.300	0.000	0.000	0.000
622.670	0.000	0.000	0.000
623.040	0.000	0.000	0.000
623.410	0.000	0.000	0.000
623.780	0.000	0.000	0.000
624.150	0.000	0.000	0.000
624.519	0.000	0.000	0.000
624.889	0.000	0.000	0.000
625.259	0.000	0.000	0.000
625.628	0.000	0.000	0.000
625.998	0.000	0.000	0.000
626.367	0.000	0.000	0.000
626.737	0.000	0.000	0.000
627.106	0.000	0.000	0.000
627.475	0.000	0.000	0.000
627.845	0.000	0.000	0.000
628.214	0.000	0.000	0.000
628.583	0.000	0.000	0.000
628.952	0.000	0.000	0.000
629.322	0.000	0.000	0.000
629.691	0.000	0.000	0.000
630.060	0.000	0.000	0.000
630.429	0.000	0.000	0.000
630.798	0.000	0.000	0.000
631.166	0.000	0.000	0.000
631.535	0.000	0.000	0.000
631.904	0.000	0.000	0.000
632.273	0.000	0.000	0.000
632.641	0.000	0.000	0.000
633.010	0.000	0.000	0.000
633.379	0.000	0.000	0.000
633.747	0.000	0.000	0.000
634.116	0.000	0.000	0.000
634.484	0.000	0.000	0.000
634.853	0.000	0.000	0.000
635.221	0.000	0.000	0.000
635.589	0.000	0.000	0.000
635.958	0.000	0.000	0.000
636.326	0.000	0.000	0.000
636.694	0.000	0.000	0.000
637.062	0.000	0.000	0.000
637.430	0.000	0.000	0.000
637.798	0.000	0.000	0.000
638.166	0.000	0.000	0.000
638.534	0.000	0.000	0.000
638.902	0.000	0.000	0.000
639.270	0.000	0.000	0.000
639.638	0.000	0.000	0.000
640.005	0.000	0.000	0.000
640.373	0.000	0.000	0.000
640.741	0.000	0.000	0.000
641.108	0.000	0.000	0.000
641.476	0.000	0.000	0.000
641.843	0.000	0.000	0.000
642.211	0.000	0.000	0.000
642.578	0.000	0.000	0.000
642.946	0.000	0.000	0.000
643.313	0.000	0.000	0.000
643.680	0.000	0.000	0.000
644.047	0.000	0.000	0.000
644.415	0.000	0.000	0.000
644.782	0.000	0.000	0.000
645.149	0.000	0.000	0.000
645.516	0.000	0.000	0.000
645.883	0.000	0.000	0.000
646.250	0.000	0.000	0.000
646.617	0.000	0.000	0.000
646.983	0.000	0.000	0.000
647.350	0.000	0.000	0.000
647.717	0.000	0.000	0.000
648.084	0.000	0.000	0.000
648.450	0.000	0.000	0.000
648.817	0.000	0.000	0.000
649.183	0.000	0.000	0.000
649.550	0.000	0.000	0.000
649.916	0.000	0.000	0.000
650.283	0.000	0.000	0.000
650.649	0.000	0.000	0.000
651.015	0.000	0.000	0.000
651.382	0.000	0.000	0.000
651.748	0.000	0.000	0.000
652.114	0.000	0.000	0.000
652.480	0.000	0.000	0.000
652.846	0.000	0.000	0.000
653.212	0.000	0.000	0.000
653.578	0.000	0.000	0.000
653.944	0.000	0.000	0.000
654.310	0.000	0.000	0.000
654.676	0.000	0.000	0.000
655.042	0.000	0.000	0.000
655.407	0.000	0.000	0.000
655.773	0.000	0.000	0.000
656.139	0.000	0.000	0.000
656.504	0.000	0.000	0.000
656.870	0.000	0.000	0.000
657.235	0.000	0.000	0.000
657.601	0.000	0.000	0.000
657.966	0.000	0.000	0.000
658.331	0.000	0.000	0.000
658.697	0.000	0.000	0.000
659.062	0.000	0.000	0.000
659.427	0.000	0.000	0.000
659.792	0.000	0.000	0.000
660.157	0.000	0.000	0.000
660.522	0.000	0.000	0.000
660.887	0.000	0.000	0.000
661.252	0.000	0.000	0.000
661.617	0.000	0.000	0.000
661.982	0.000	0.000	0.000
662.347	0.000	0.000	0.000
662.712	0.000	0.000	0.000
663.076	0.000	0.000	0.000
663.441	0.000	0.000	0.000
663.806	0.000	0.000	0.000
664.170	0.000	0.000	0.000
664.535	0.000	0.000	0.000
664.899	0.000	0.000	0.000
665.264	0.000	0.000	0.000
665.628	0.000	0.000	0.000
665.992	0.000	0.000	0.000
666.357	0.000	0.000	0.000
666.721	0.000	0.000	0.000
667.085	0.000	0.000	0.000
667.449	0.000	0.000	0.000
667.813	0.000	0.000	0.000
668.177	0.000	0.000	0.000
668.541	0.000	0.000	0.000
668.905	0.000	0.000	0.000
669.269	0.000	0.000	0.000
669.633	0.000	0.000	0.000
669.997	0.000	0.000	0.000
670.361	0.000	0.000	0.000
670.724	0.000	0.000	0.000
671.088	0.000	0.000	0.000
671.451	0.000	0.000	0.000
671.815	0.000	0.000	0.000
672.179	0.000	0.000	0.000
672.542	0.000	0.000	0.000
672.905	0.000	0.000	0.000
673.269	0.000	0.000	0.000
673.632	0.000	0.000	0.000
673.995	0.000	0.000	0.000
674.358	0.000	0.000	0.000
674.722	0.000	0.000	0.000
675.085	0.000	0.000	0.000
675.448	0.000	0.000	0.000
675.811	0.000	0.000	0.000
676.174	0.000	0.000	0.000
676.537	0.000	0.000	0.000
676.900	0.000	0.000	0.000
677.262	0.000	0.000	0.000
677.625	0.000	0.000	0.000
677.988	0.000	0.000	0.000
678.350	0.000	0.000	0.000
678.713	0.000	0.000	0.000
679.076	0.000	0.000	0.000
679.438	0.000	0.000	0.000
679.801	0.000	0.000	0.000
680.163	0.000	0.000	0.000
680.525	0.000	0.000	0.000
680.888	0.000	0.000	0.000
681.250	0.000	0.000	0.000
681.612	0.000	0.000	0.000
681.974	0.000	0.000	0.000
682.337	0.000	0.000	0.000
682.699	0.000	0.000	0.000
683.061	0.000	0.000	0.000
683.423	0.000	0.000	0.000
683.785	0.000	0.000	0.000
684.146	0.000	0.000	0.000
684.508	0.000	0.000	0.000
684.870	0.000	0.000	0.000
685.232	0.000	0.000	0.000
685.593	0.000	0.000	0.000
685.955	0.000	0.000	0.000
686.317	0.000	0.000	0.000
686.678	0.000	0.000	0.000
687.040	0.000	0.000	0.000
687.401	0.000	0.000	0.000
687.762	0.000	0.000	0.000
688.124	0.000	0.000	0.000
688.485	0.000	0.000	0.000
688.846	0.000	0.000	0.000
689.208	0.000	0.000	0.000
689.569	0.000	0.000	0.000
689.930	0.000	0.000	0.000
690.291	0.000	0.000	0.000
690.652	0.000	0.000	0.000
691.013	0.000	0.000	0.000
691.374	0.000	0.000	0.000
691.734	0.000	0.000	0.000
692.095	0.000	0.000	0.000
692.456	0.000	0.000	0.000
692.817	0.000	0.000	0.000
693.177	0.000	0.000	0.000
693.538	0.000	0.000	0.000
693.898	0.000	0.000	0.000
694.259	0.000	0.000	0.000
694.619	0.000	0.000	0.000
694.980	0.000	0.000	0.000
695.340	0.000	0.000	0.000
695.700	0.000	0.000	0.000
696.061	0.000	0.000	0.000
696.421	0.000	0.000	0.000
696.781	0.000	0.000	0.000
697.141	0.000	0.000	0.000
697.501	0.000	0.000	0.000
697.861	0.000	0.000	0.000
698.221	0.000	0.000	0.000
698.581	0.000	0.000	0.000
698.941	0.000	0.000	0.000
699.301	0.000	0.000	0.000
699.660	0.000	0.000	0.000
700.020	0.000	0.000	0.000
700.380	0.000	0.000	0.000
700.739	0.000	0.000	0.000
701.099	0.000	0.000	0.000
701.458	0.000	0.000	0.000
701.818	0.000	0.000	0.000
702.177	0.000	0.000	0.000
702.536	0.000	0.000	0.000
702.896	0.000	0.000	0.000
703.255	0.000	0.000	0.000
703.614	0.000	0.000	0.000
703.973	0.000	0.000	0.000
704.332	0.000	0.000	0.000
704.692	0.000	0.000	0.000
705.051	0.000	0.000	0.000
705.409	0.000	0.000	0.000
705.768	0.000	0.000	0.000
706.127	0.000	0.000	0.000
706.486	0.000	0.000	0.000
706.845	0.000	0.000	0.000
707.203	0.000	0.000	0.000
707.562	0.000	0.000	0.000
707.921	0.000	0.000	0.000
708.279	0.000	0.000	0.000
708.638	0.000	0.000	0.000
708.996	0.000	0.000	0.000
709.355	0.000	0.000	0.000
709.713	0.000	0.000	0.000
710.071	0.000	0.000	0.000
710.429	0.000	0.000	0.000
710.788	0.000	0.000	0.000
711.146	0.000	0.000	0.000
711.504	0.000	0.000	0.000
711.862	0.000	0.000	0.000
712.220	0.000	0.000	0.000
712.578	0.000	0.000	0.000
712.936	0.000	0.000	0.000
713.294	0.000	0.000	0.000
713.651	0.000	0.000	0.000
714.009	0.000	0.000	0.000
714.367	0.000	0.000	0.000
714.724	0.000	0.000	0.000
715.082	0.000	0.000	0.000
715.440	0.000	0.000	0.000
715.797	0.000	0.000	0.000
716.154	0.000	0.000	0.000
716.512	0.000	0.000	0.000
716.869	0.000	0.000	0.000
717.226	0.000	0.000	0.000
717.584	0.000	0.000	0.000
717.941	0.000	0.000	0.000
718.298	0.000	0.000	0.000
718.655	0.000	0.000	0.000
719.012	0.000	0.000	0.000
719.369	0.000	0.000	0.000
719.726	0.000	0.000	0.000
720.083	0.000	0.000	0.000
720.440	0.000	0.000	0.000
720.797	0.000	0.000	0.000
721.153	0.000	0.000	0.000
721.510	0.000	0.000	0.000
721.867	0.000	0.000	0.000
722.223	0.000	0.000	0.000
722.580	0.000	0.000	0.000
722.936	0.000	0.000	0.000
723.293	0.000	0.000	0.000
723.649	0.000	0.000	0.000
724.005	0.000	0.000	0.000
724.362	0.000	0.000	0.000
724.718	0.000	0.000	0.000
725.074	0.000	0.000	0.000
725.430	0.000	0.000	0.000
725.786	0.000	0.000	0.000
726.142	0.000	0.000	0.000
726.498	0.000	0.000	0.000
726.854	0.000	0.000	0.000
727.210	0.000	0.000	0.000
727.566	0.000	0.000	0.000
727.921	0.000	0.000	0.000
728.277	0.000	0.000	0.000
728.633	0.000	0.000	0.000
728.988	0.000	0.000	0.000
729.344	0.000	0.000	0.000
729.700	0.000	0.000	0.000
730.055	0.000	0.000	0.000
730.410	0.000	0.000	0.000
730.766	0.000	0.000	0.000
731.121	0.000	0.000	0.000
731.476	0.000	0.000	0.000
731.831	0.000	0.000	0.000
732.187	0.000	0.000	0.000
732.542	0.000	0.000	0.000
732.897	0.000	0.000	0.000
733.252	0.000	0.000	0.000
733.607	0.000	0.000	0.000
733.962	0.000	0.000	0.000
734.316	0.000	0.000	0.000
734.671	0.000	0.000	0.000
735.026	0.000	0.000	0.000
735.381	0.000	0.000	0.000
735.735	0.000	0.000	0.000
736.090	0.000	0.000	0.000
736.444	0.000	0.000	0.000
736.799	0.000	0.000	0.000
737.153	0.000	0.000	0.000
737.508	0.000	0.000	0.000
737.862	0.000	0.000	0.000
738.216	0.000	0.000	0.000
738.571	0.000	0.000	0.000
738.925	0.000	0.000	0.000
739.279	0.000	0.000	0.000
739.633	0.000	0.000	0.000
739.987	0.000	0.000	0.000
740.341	0.000	0.000	0.000
740.695	0.000	0.000	0.000
741.049	0.000	0.000	0.000
741.403	0.000	0.000	0.000
741.756	0.000	0.000	0.000
742.110	0.000	0.000	0.000
742.464	0.000	0.000	0.000
742.817	0.000	0.000	0.000
743.171	0.000	0.000	0.000
743.524	0.000	0.000	0.000
743.878	0.000	0.000	0.000
744.231	0.000	0.000	0.000
744.585	0.000	0.000	0.000
744.938	0.000	0.000	0.000
745.291	0.000	0.000	0.000
745.644	0.000	0.000	0.000
745.998	0.000	0.000	0.000
746.351	0.000	0.000	0.000
746.704	0.000	0.000	0.000
747.057	0.000	0.000	0.000
747.410	0.000	0.000	0.000
747.762	0.000	0.000	0.000
748.115	0.000	0.000	0.000
748.468	0.000	0.000	0.000
748.821	0.000	0.000	0.000
749.174	0.000	0.000	0.000
749.526	0.000	0.000	0.000
749.879	0.000	0.000	0.000
750.231	0.000	0.000	0.000
750.584	0.000	0.000	0.000
750.936	0.000	0.000	0.000
751.289	0.000	0.000	0.000
751.641	0.000	0.000	0.000
751.993	0.000	0.000	0.000
752.345	0.000	0.000	0.000
752.697	0.000	0.000	0.000
753.050	0.000	0.000	0.000
753.402	0.000	0.000	0.000
753.754	0.000	0.000	0.000
754.106	0.000	0.000	0.000
754.458	0.000	0.000	0.000
754.809	0.000	0.000	0.000
755.161	0.000	0.000	0.000
755.513	0.000	0.000	0.000
755.865	0.000	0.000	0.000
756.216	0.000	0.000	0.000
756.568	0.000	0.000	0.000
756.919	0.000	0.000	0.000
757.271	0.000	0.000	0.000
757.622	0.000	0.000	0.000
757.974	0.000	0.000	0.000
758.325	0.000	0.000	0.000
758.676	0.000	0.000	0.000
759.028	0.000	0.000	0.000
759.379	0.000	0.000	0.000
759.730	0.000	0.000	0.000
760.081	0.000	0.000	0.000
760.432	0.000	0.000	0.000
760.783	0.000	0.000	0.000
761.134	0.000	0.000	0.000
761.485	0.000	0.000	0.000
761.835	0.000	0.000	0.000
762.186	0.000	0.000	0.000
762.537	0.000	0.000	0.000
762.888	0.000	0.000	0.000
763.238	0.000	0.000	0.000
763.589	0.000	0.000	0.000
763.939	0.000	0.000	0.000
764.290	0.000	0.000	0.000
764.640	0.000	0.000	0.000
764.990	0.000	0.000	0.000
765.341	0.000	0.000	0.000
765.691	0.000	0.000	0.000
766.041	0.000	0.000	0.000
766.391	0.000	0.000	0.000
766.741	0.000	0.000	0.000
767.091	0.000	0.000	0.000
767.441	0.000	0.000	0.000
767.791	0.000	0.000	0.000
768.141	0.000	0.000	0.000
768.491	0.000	0.000	0.000
768.841	0.000	0.000	0.000
769.190	0.000	0.000	0.000
769.540	0.000	0.000	0.000
769.890	0.000	0.000	0.000
770.239	0.000	0.000	0.000
770.589	0.000	0.000	0.000
770.938	0.000	0.000	0.000
771.288	0.000	0.000	0.000
771.637	0.000	0.000	0.000
771.986	0.000	0.000	0.000
772.335	0.000	0.000	0.000
772.685	0.000	0.000	0.000
773.034	0.000	0.000	0.000
773.383	0.000	0.000	0.000
773.732	0.000	0.000	0.000
774.081	0.000	0.000	0.000
774.430	0.000	0.000	0.000
774.779	0.000	0.000	0.000
775.127	0.000	0.000	0.000
775.476	0.000	0.000	0.000
775.825	0.000	0.000	0.000
776.174	0.000	0.000	0.000
776.522	0.000	0.000	0.000
776.871	0.000	0.000	0.000
777.219	0.000	0.000	0.000
777.568	0.000	0.000	0.000
777.916	0.000	0.000	0.000
778.264	0.000	0.000	0.000
778.613	0.000	0.000	0.000
778.961	0.000	0.000	0.000
779.309	0.000	0.000	0.000
779.657	0.000	0.000	0.000
780.005	0.000	0.000	0.000
780.353	0.000	0.000	0.000
780.701	0.000	0.000	0.000
781.049	0.000	0.000	0.000
781.397	0.000	0.000	0.000
781.745	0.000	0.000	0.000
782.093	0.000	0.000	0.000
782.440	0.000	0.000	0.000
782.788	0.000	0.000	0.000
783.136	0.000	0.000	0.000
783.483	0.000	0.000	0.000
783.831	0.000	0.000	0.000
784.178	0.000	0.000	0.000
784.525	0.000	0.000	0.000
784.873	0.000	0.000	0.000
785.220	0.000	0.000	0.000
785.567	0.000	0.000	0.000
785.914	0.000	0.000	0.000
786.262	0.000	0.000	0.000
786.609	0.000	0.000	0.000
786.956	0.000	0.000	0.000
787.303	0.000	0.000	0.000
787.649	0.000	0.000	0.000
787.996	0.000	0.000	0.000
788.343	0.000	0.000	0.000
788.690	0.000	0.000	0.000
789.037	0.000	0.000	0.000
789.383	0.000	0.000	0.000
789.730	0.000	0.000	0.000
790.076	0.000	0.000	0.000
790.423	0.000	0.000	0.000
790.769	0.000	0.000	0.000
791.116	0.000	0.000	0.000
791.462	0.000	0.000	0.000
791.808	0.000	0.000	0.000
792.154	0.000	0.000	0.000
792.501	0.000	0.000	0.000
792.847	0.000	0.000	0.000
793.193	0.000	0.000	0.000
793.539	0.000	0.000	0.000
793.885	0.000	0.000	0.000
794.231	0.000	0.000	0.000
794.576	0.000	0.000	0.000
794.922	0.000	0.000	0.000
795.268	0.000	0.000	0.000
795.614	0.000	0.000	0.000
795.959	0.000	0.000	0.000
796.305	0.000	0.000	0.000
796.650	0.000	0.000	0.000
796.996	0.000	0.000	0.000
797.341	0.000	0.000	0.000
797.686	0.000	0.000	0.000
798.032	0.000	0.000	0.000
798.377	0.000	0.000	0.000
798.722	0.000	0.000	0.000
799.067	0.000	0.000	0.000
799.412	0.000	0.000	0.000
799.757	0.000	0.000	0.000
800.102	0.000	0.000	0.000
800.447	137288500646.477	0.000	0.000
800.792	137822266346.835	119471053202.706	0.000
801.137	138437863695.885	133774638665.910	104548789823.955
801.482	140719195048.244	135621430713.058	105019540737.934
801.827	145137011317.892	136743990584.854	105816196130.822
802.171	153972643857.188	137287164716.368	108314797135.786
802.516	167189881057.364	140328939852.847	122075208467.477
802.860	177220496685.990	147281568736.227	126855140824.801
803.205	181565889738.103	148548975043.093	134459578665.998
803.549	191994833063.174	156805221842.107	135835619799.167
803.894	199671694121.906	175888739662.636	143693538901.737
804.238	205139647045.815	182841368546.016	143729750510.505
804.582	206336473898.804	187025573633.328	145660950615.690
804.927	212836662257.950	188223932381.104	150527013409.687
805.271	224311855115.436	193525761992.474	162546914788.889
805.615	234261864112.117	193925214908.399	175946744423.105
805.959	243630850685.633	207978694768.674	180231784793.939
806.303	251583595102.689	218291842779.833	190435991100.754
806.647	261206778986.340	222358999741.980	190726502312.336
806.991	262005684818.190	227915026663.484	195992018022.258
807.335	271810438209.080	233797878698.018	200422313998.882
807.678	273371935971.333	251882201618.992	205252062891.432
808.022	282226392859.190	260858205014.524	214642956695.424
808.366	291913100497.204	263989997709.522	215953939684.027
808.709	294899228415.690	272256473776.549	229682844870.236
809.053	312160504432.303	280413701261.193	235290938765.929
809.397	324323513271.013	288971506881.244	244176490133.130
809.740	344752998176.751	294943762718.215	246215797004.291
810.083	347921207065.876	298876711684.026	257941811513.467
810.427	358081325227.553	306487696256.752	272836034911.768
810.770	377563989085.966	324695793320.689	287220431592.278
811.113	397447231079.786	328264580345.221	292063785411.286
811.457	400069197056.993	344287705761.486	294248757058.958
811.800	404366307964.082	347492330844.739	299456272819.244
812.143	404621221322.977	360602160730.773	303462054173.310
812.486	410411396189.309	372473840016.461	314605409576.440
812.829	431831997368.286	392509727988.133	326262086245.411
813.172	456628049910.924	405437272318.168	340102592745.646
813.515	469190409372.880	410330749550.441	354856061416.082
813.857	484236025937.779	422089702302.620	362232795751.300
814.200	501984010526.472	438011762550.912	376511524093.232
814.543	524771546294.670	446739680898.026	378483522380.864
814.886	529774578987.367	460507150424.646	391703214605.364
815.228	540889806398.876	469597312451.208	400417544622.946
815.571	550154863609.376	485637213867.015	408583978448.802
815.913	568135666338.055	495378341210.861	424550638305.633
816.256	589558822338.619	508928029621.474	434072040972.550
816.598	598311188636.285	526652486893.736	454726160603.864
816.940	621528762831.768	548954541602.015	456886786593.664
817.283	634529139550.059	566898723551.206	476295799722.380
817.625	659358028043.021	576896196351.469	491969493343.306
817.967	673200682689.539	592203682177.513	508558706451.435
818.309	694330872454.198	616446638198.664	517237831190.125
818.651	720954179142.079	639224763040.290	531776280646.918
818.993	746369000106.851	648526441030.278	549866945714.061
819.335	761896210609.824	655081560558.656	567371678309.394
819.677	769549953522.846	656875978753.575	569422441960.730
820.019	770575335348.514	681338659451.655	581031229058.471
820.361	785553234159.164	700527947903.443	588868075868.934
820.702	811956816170.116	722353932478.376	618933735828.700
821.044	839971712478.546	737002244273.634	630103073572.584
821.386	872088136089.648	759597265217.818	655810860773.261
821.727	894719777813.321	792299621300.731	664343502393.998
822.069	922734674121.751	805299998019.022	689062528548.495
822.410	931523661198.906	818483478634.754	701147385779.583
822.752	953386266553.328	835951590450.598	729052419749.549
823.093	969755754984.528	862391793241.038	740661206847.290
823.434	1014066898165.182	887293923292.976	759887116078.566
823.776	1041981345557.136	903653719218.655	771484258407.698
824.117	1075619679663.278	928294900643.569	792636747976.626
824.458	1094605507974.279	947097113593.728	810153653400.895
824.799	1119467027832.203	974345633142.590	830057558516.102
825.140	1142382224865.209	1001851214196.631	851503832662.376
825.481	1165187252681.709	1040263547684.650	863842784910.918
825.822	1194051587405.976	1062884960140.309	880588505819.653
826.163	1218839661119.564	1085102418802.117	899133657264.633
826.503	1243482993186.177	1095379585088.960	916442004511.034
826.844	1260901390759.477	1122372577522.846	933676275260.091
827.185	1296658820027.285	1136403041530.092	961332124261.249
827.526	1331870724927.354	1168584855462.891	1007244778239.015
827.866	1370090850469.400	1199050172923.943	1042326052891.135
828.207	1396235631999.611	1237011804863.290	1056653984012.211
828.547	1425394776723.442	1282763663450.049	1071911976777.997
828.888	1466683171206.122	1303500435566.910	1107460728978.331
829.228	1516192214635.129	1331346958123.839	1140121145062.388
829.568	1566981555744.116	1365473151320.635	1180774216305.679
829.908	1598581094442.499	1405056122240.113	1196221229347.427
830.249	1622717052320.229	1435504561408.942	1233539133450.687
830.589	1654889841693.501	1480007528663.940	1266315361445.583
830.929	1701805356510.379	1517242064232.890	1290890154921.090
831.269	1745945673410.625	1561808759827.612	1319900273311.475
831.609	1802697652349.234	1579730437387.173	1347156157933.307
831.949	1829800509617.001	1619700509107.371	1382932323358.506
832.289	1878920636276.138	1650662662115.836	1412771302739.094
832.629	1926889052145.056	1687871240643.124	1446889712990.034
832.968	1987856307846.647	1730630910744.178	1490963332567.416
833.308	2022070245359.323	1788235933641.520	1518365000855.366
833.648	2047216241160.701	1838226775593.961	1551227956446.090
833.987	2097094151994.273	1872106111254.500	1579272517631.759
834.327	2164205517730.878	1919921826955.654	1618365830088.360
834.666	2232299299872.079	1957818809921.155	1660414872940.520
835.006	2277294783578.248	2001313478228.067	1699507980811.760
835.345	2315521558144.503	2034998457796.351	1749089242872.942
835.684	2373620222712.500	2086077105408.434	1790287022637.949
836.024	2427393952764.410	2144022660637.944	1826696482045.861
836.363	2482948598377.461	2201486417344.020	1866137385029.559
836.702	2533237112029.093	2252728810237.906	1897729865533.012
837.041	2605640180401.735	2316919640467.667	1971489758116.468
837.380	2671105759207.656	2375859275962.724	2025478010020.130
837.719	2751268136539.218	2435426374757.726	2083726138295.312
838.058	2827191300620.647	2494312511181.072	2124901413670.690
838.397	2925634402819.042	2550499348361.030	2170635055458.220
838.736	2978839689952.029	2620331287723.075	2233700334029.369
839.074	3052278471711.032	2683904781628.224	2280937269044.155
839.413	3125363525382.130	2759516282716.958	2348294355899.954
839.752	3223149294817.980	2829837308681.818	2393564509553.794
840.090	3289128587463.538	2908460817737.113	2451505043739.812
840.429	3351922179171.666	2973588035160.824	2494083979271.995
840.767	3431103671993.419	3048050073402.886	2544118619088.460
841.106	3517701486417.601	3127152209908.531	2626437442511.448
841.444	3621444372373.763	3200464376133.203	2694895403190.853
841.783	3710396759709.281	3262000609020.793	2757497107932.558
842.121	3774805243463.277	3345410981036.569	2789839905244.798
842.459	3864851241842.112	3422440565550.008	2860671158396.003
842.797	3937723117567.810	3508497274499.955	2939510189426.175
843.135	4043950795017.119	3575522634896.241	3011455921327.445
843.473	4138272422840.216	3678842256545.682	3092131105966.032
843.811	4266024730628.784	3772939579324.920	3171695801269.079
844.149	4384244178970.257	3861358430844.531	3276068312772.979
844.487	4493510560280.226	3932835850259.220	3353977895914.523
844.825	4586357127655.783	4023651214689.023	3438282424844.281
845.163	4672869220814.012	4138433242610.934	3508546771962.181
845.501	4778110489948.785	4249005312989.229	3582889937407.762
845.838	4893773030457.618	4359270709912.482	3674213892341.029
846.176	5027218127985.612	4440531708133.272	3777201344358.982
846.513	5143494424575.252	4524592277723.074	3861423118510.511
846.851	5274086786335.072	4623426672226.659	3948999785692.410
847.188	5375031251440.797	4739516409771.409	4022482158234.661
847.526	5497373296881.634	4849378748235.840	4110249277790.045
847.863	5616495478125.295	4988826303240.538	4204573579324.335
848.200	5741604540563.771	5077428131065.818	4284971534202.832
848.537	5848117512297.975	5212303612439.226	4406356750510.616
848.875	5988851579537.049	5327958401508.043	4520418936140.257
849.212	6118995589984.423	5458926890957.303	4637989641808.901
849.549	6267538987303.002	5592194740569.715	4719215672530.012
849.886	6441972559670.938	5702192437549.055	4829538242359.294
850.223	6627407505201.979	5821843290167.327	4924400091927.691
850.560	6791320582296.124	5951922881525.309	5053934556891.072
850.896	6923113144071.963	6101268685430.539	5147443994935.410
851.233	7049237563653.453	6226349719674.656	5248318489352.506
851.570	7232192423154.634	6371098081363.924	5381674608845.709
851.906	7401949481064.861	6513166374833.666	5509370874347.073
852.243	7581193162130.762	6672164106865.666	5625349513339.031
852.580	7741626546629.355	6819564380988.327	5722929671992.396
852.916	7941094308899.284	6993609161682.746	5871126720397.550
853.253	8105444584908.324	7146576637928.138	6041014522454.500
853.589	8289258089166.553	7288048462780.016	6195478634200.775
853.925	8453996358815.927	7430976910097.918	6324643601406.582
854.261	8686971111390.706	7630703291066.900	6472878498103.386
854.598	8864078611921.941	7804414674617.672	6617935144631.486
854.934	9089525646165.625	7968584119971.911	6768819933207.175
855.270	9258880080086.842	8128845575774.291	6917239570484.301
855.606	9459704752263.338	8286800920096.628	7031899026476.319
855.942	9653508773419.580	8501523101095.286	7214963762417.473
856.278	9875348047127.600	8703890781358.021	7384679712771.798
856.614	10057591458543.027	8900278201655.643	7557708088097.310
856.950	10263758061556.920	9068882750742.473	7698404730316.965
857.285	10484788302457.756	9271133919642.535	7859064811991.665
857.621	10736235885552.660	9484948866861.078	8002184358632.982
857.957	10948343135965.365	9705557480138.076	8174062367074.630
858.292	11210994017973.957	9908019167373.855	8370734893668.714
858.628	11422519732004.680	10101545461408.117	8557321652282.650
858.963	11734912475582.266	10346697975771.219	8765574221731.359
859.299	11990560809879.570	10577727348958.873	8917277760918.842
859.634	12254574128094.877	10812216772052.080	9093489091876.346
859.969	12520305144994.996	11073256464859.547	9305190049865.066
860.305	12797631957822.484	11312095475004.750	9534193200942.453
860.640	13066042531478.727	11575723684083.025	9759148221496.199
860.975	13339678519618.867	11797896224847.504	9922599649229.480
861.310	13647265962254.453	12085585513561.648	10129214410576.555
861.645	13956578673233.189	12331838697163.002	10348612278989.312
861.980	14280065978605.482	12597084971855.641	10591993586893.723
862.315	14598549739821.676	12893923931637.094	10868441617407.686
862.650	14919836522563.498	13151947806349.744	11106043781458.289
862.985	15211630998313.123	13422537339189.207	11367469518138.424
863.319	15533420347487.861	13688701281515.334	11560225769473.557
863.654	15838018798009.924	13968505850444.713	11837160099388.877
863.989	16159753727478.828	14279018068194.385	12085445727549.652
864.323	16493120766776.547	14568348949839.324	12379423347780.219
864.658	16796602385816.900	14839540679686.740	12603770749813.967
864.992	17105623358071.893	15106671594718.176	12819581520812.449
865.327	17456745542445.916	15429523992228.549	13073722995740.203
865.661	17813585989932.133	15708593179080.439	13324351330861.420
865.995	18164864784399.434	16009475257044.209	13631887129795.047
866.330	18485726134380.000	16303404808417.275	13856505812016.512
866.664	18814552197021.191	16639416750056.232	14109460794147.387
866.998	19151525257879.008	17001233963820.025	14298481214511.332
867.332	19488992392381.883	17297228906697.691	14557725559787.598
867.666	19894536228643.781	17694599194253.477	14853794570460.437
868.000	20274094345997.668	17976308555179.641	15134727112071.496
868.334	20636922495515.559	18277633560448.391	15380278661477.637
868.668	20937905002087.547	18489755256932.672	15623524533873.549
869.001	21230773039515.184	18722650960069.383	15906054273392.225
869.335	21458496699647.934	18956253198747.777	16115766150215.729
869.669	21783519932107.867	19210206693730.703	16338067408365.672
870.003	21877989475146.434	19363885820151.789	16450136830293.611
870.336	21925758011118.367	19406165046833.344	16486054159617.396
870.670	21973526547090.305	19448444273514.898	16521971488941.182
871.003	22069063619034.172	19533002726878.008	16593806147588.752
871.336	22116832155006.109	19575281953559.559	16629723476912.537
871.670	22212369226949.980	19659840406922.668	16701558135560.105
872.003	22084479749668.184	19586333116862.484	16634511744767.732
872.336	22014962876751.789	19469471759236.074	16474103557462.305
872.669	21835608110826.094	19296671726471.711	16289625885924.303
873.003	21600479488569.238	18996032644221.449	16068153248274.229
873.336	21300441969262.586	18745506464390.109	15921286565965.002
873.669	20941898660521.000	18408161597434.512	15633600285634.598
874.002	20633378418421.512	18123669030871.844	15365314647030.068
874.334	20140190119013.953	17759585164207.129	15018552093483.039
874.667	19620496660964.070	17310032592216.971	14649117799481.725
875.000	18991755932525.070	16847339297951.381	14245388656953.164
875.333	18432827707838.887	16332188066873.867	13803191124547.875
875.665	17881914833185.414	15834253742088.873	13392610844071.553
875.998	17257910358129.320	15267623515148.324	12888452384869.844
876.331	16562980230375.182	14645392613384.072	12362323503828.854
876.663	15846755221641.367	14037336817476.779	11884207124306.500
876.995	15193817162211.973	13445776048418.301	11401820451156.178
877.328	14525108024034.744	12853176574186.650	10912369940382.244
877.660	13819329859845.023	12230324858146.664	10384122680228.346
877.992	13090478456431.486	11610514712657.795	9857570307491.596
878.325	12438045722841.955	11016317861232.254	9317981567610.072
878.657	11753753010894.998	10427269170513.426	8796184781572.775
878.989	11170885846528.441	9875393255883.842	8352892734086.971
879.321	10552774352977.627	9316473058129.477	7961329685774.452
879.653	9976279713209.992	8764939184923.169	7508742592725.939
879.985	9362245196718.619	8276447599734.072	7048884961741.116
880.317	8801314592818.803	7798499704958.067	6594305923332.347
880.648	8298567556411.495	7379808246107.493	6233189063749.693
880.980	7841471694799.188	6960501164608.780	5893408497085.246
881.312	7420954675171.583	6591755129760.669	5566136705115.288
881.644	6991548009974.156	6225924206411.937	5257540164282.516
881.975	6596430362621.208	5854446727119.783	4962979713554.396
882.307	6233112849912.386	5519545427707.232	4684000893035.080
882.638	5912083440544.615	5202488702472.516	4423127586618.453
882.969	5602362484470.295	4916466732750.064	4169815329349.719
883.301	5279023713060.391	4667989654588.095	3957062528925.030
883.632	5002604650467.251	4413729050584.001	3746018118551.265
883.963	4760811560302.369	4194926899642.773	3553587207729.736
884.295	4531159892725.271	3964176426899.347	3350885992933.100
884.626	4285956978360.786	3796522252708.242	3185093732701.471
884.957	4057609337870.042	3601738193178.139	3021514148836.907
885.288	3868244005681.028	3402983745561.296	2864195490752.653
885.619	3682616961982.944	3223843740073.971	2710215580052.234
885.950	3483165366947.310	3068452489370.977	2587812277892.922
886.280	3307824363700.149	2939590359096.549	2495510250142.989
886.611	3133229378473.792	2807069705818.022	2376133276925.455
886.942	2973687784056.026	2661193720221.136	2240219669037.381
887.273	2804714395359.140	2532405317669.995	2107391822138.245
887.603	2684191937103.367	2398381907926.704	2023805028443.089
887.934	2552811108355.902	2286559257839.266	1931373072392.458
888.264	2417379080304.391	2158788769748.143	1852999813128.791
888.595	2285672551663.378	2046496698551.569	1735771190779.441
888.925	2155353114260.405	1927593272151.634	1631572524329.868
889.255	2048188850022.617	1815616978458.635	1528089685458.950
889.586	1920779534581.374	1697112059041.413	1433218048987.112
889.916	1823065070629.825	1614278259169.058	1364563736152.628
890.246	1698957967488.683	1526793288124.576	1289044033493.991
890.576	1609021734146.464	1453970438387.171	1222421748153.452
890.906	1519321697098.091	1374250734576.150	1150455505214.254
891.236	1443100661722.943	1289137214735.226	1071607505622.082
891.566	1356721451747.040	1220036079579.153	1014928887132.055
891.896	1272957049756.151	1147240669579.115	958167018997.325
892.226	1190583007378.233	1077810049700.329	906889351725.718
892.555	1132309736691.496	994651675153.907	849831141696.639
892.885	1054276279609.725	933840543381.292	787911250861.881
893.215	977984866870.644	868623665875.286	730052379428.463
893.544	899526590783.691	817820875226.120	672797153697.444
893.874	837621927456.764	756904177407.607	639153312383.500
894.203	788905248118.910	703053576353.835	599122639596.926
894.533	739635162886.113	645638254683.645	554078176789.315
894.862	691041129976.325	590013975549.929	506295236641.822
895.191	643013698717.217	556545497890.993	462197713771.142
895.520	585234192302.074	513271423200.634	432840140340.193
895.850	531700755242.048	465539663394.466	391745316802.179
896.179	474674736708.774	406084523389.714	359612133788.461
896.508	434928611459.897	369690858950.560	333557795584.415
896.837	414793325293.059	349034539478.467	301734371403.071
897.166	384325964473.821	319906519523.905	279216598029.313
897.495	349872055819.799	290483001315.526	251986422064.048
897.823	296712802888.288	254773163443.071	232007246133.188
898.152	260641749254.020	245858406967.534	205398089029.018
898.481	229614952262.542	219788349692.004	171821982066.250
898.810	0.000	0.000	0.000
899.138	0.000	0.000	0.000
899.467	0.000	0.000	0.000
899.795	0.000	0.000	0.000
900.124	0.000	0.000	0.000
900.452	0.000	0.000	0.000
900.780	0.000	0.000	0.000
901.108	0.000	0.000	0.000
901.437	0.000	0.000	0.000
901.765	0.000	0.000	0.000
902.093	0.000	0.000	0.000
902.421	0.000	0.000	0.000
902.749	0.000	0.000	0.000
903.077	0.000	0.000	0.000
903.405	0.000	0.000	0.000
903.732	0.000	0.000	0.000
904.060	0.000	0.000	0.000
904.388	0.000	0.000	0.000
904.715	0.000	0.000	0.000
905.043	0.000	0.000	0.000
905.370	0.000	0.000	0.000
905.698	0.000	0.000	0.000
906.025	0.000	0.000	0.000
906.353	0.000	0.000	0.000
906.680	0.000	0.000	0.000
907.007	0.000	0.000	0.000
907.334	0.000	0.000	0.000
907.661	0.000	0.000	0.000
907.988	0.000	0.000	0.000
908.315	0.000	0.000	0.000
908.642	0.000	0.000	0.000
908.969	0.000	0.000	0.000
909.296	0.000	0.000	0.000
909.623	0.000	0.000	0.000
909.949	0.000	0.000	0.000
910.276	0.000	0.000	0.000
910.602	0.000	0.000	0.000
910.929	0.000	0.000	0.000
911.255	0.000	0.000	0.000
911.582	0.000	0.000	0.000
911.908	0.000	0.000	0.000
912.234	0.000	0.000	0.000
912.561	0.000	0.000	0.000
912.887	0.000	0.000	0.000
913.213	0.000	0.000	0.000
913.539	0.000	0.000	0.000
913.865	0.000	0.000	0.000
914.191	0.000	0.000	0.000
914.517	0.000	0.000	0.000
914.842	0.000	0.000	0.000
915.168	0.000	0.000	0.000
915.494	0.000	0.000	0.000
915.819	0.000	0.000	0.000
916.145	0.000	0.000	0.000
916.471	0.000	0.000	0.000
916.796	0.000	0.000	0.000
917.121	0.000	0.000	0.000
917.447	0.000	0.000	0.000
917.772	0.000	0.000	0.000
918.097	0.000	0.000	0.000
918.422	0.000	0.000	0.000
918.748	0.000	0.000	0.000
919.073	0.000	0.000	0.000
919.398	0.000	0.000	0.000
919.722	0.000	0.000	0.000
920.047	0.000	0.000	0.000
920.372	0.000	0.000	0.000
920.697	0.000	0.000	0.000
921.022	0.000	0.000	0.000
921.346	0.000	0.000	0.000
921.671	0.000	0.000	0.000
921.995	0.000	0.000	0.000
922.320	0.000	0.000	0.000
922.644	0.000	0.000	0.000
922.969	0.000	0.000	0.000
923.293	0.000	0.000	0.000
923.617	0.000	0.000	0.000
923.941	0.000	0.000	0.000
924.265	0.000	0.000	0.000
924.589	0.000	0.000	0.000
924.913	0.000	0.000	0.000
925.237	0.000	0.000	0.000
925.561	0.000	0.000	0.000
925.885	0.000	0.000	0.000
926.209	0.000	0.000	0.000
926.532	0.000	0.000	0.000
926.856	0.000	0.000	0.000
927.180	0.000	0.000	0.000
927.503	0.000	0.000	0.000
927.827	0.000	0.000	0.000
928.150	0.000	0.000	0.000
928.473	0.000	0.000	0.000
928.797	0.000	0.000	0.000
929.120	0.000	0.000	0.000
929.443	0.000	0.000	0.000
929.766	0.000	0.000	0.000
930.089	0.000	0.000	0.000
930.412	0.000	0.000	0.000
930.735	0.000	0.000	0.000
931.058	0.000	0.000	0.000
931.381	0.000	0.000	0.000
931.704	0.000	0.000	0.000
932.026	0.000	0.000	0.000
932.349	0.000	0.000	0.000
932.671	0.000	0.000	0.000
932.994	0.000	0.000	0.000
933.316	0.000	0.000	0.000
933.639	0.000	0.000	0.000
933.961	0.000	0.000	0.000
934.283	0.000	0.000	0.000
934.606	0.000	0.000	0.000
934.928	0.000	0.000	0.000
935.250	0.000	0.000	0.000
935.572	0.000	0.000	0.000
935.894	0.000	0.000	0.000
936.216	0.000	0.000	0.000
936.538	0.000	0.000	0.000
936.859	0.000	0.000	0.000
937.181	0.000	0.000	0.000
937.503	0.000	0.000	0.000
937.825	0.000	0.000	0.000
938.146	0.000	0.000	0.000
938.468	0.000	0.000	0.000
938.789	0.000	0.000	0.000
939.110	0.000	0.000	0.000
939.432	0.000	0.000	0.000
939.753	0.000	0.000	0.000
940.074	0.000	0.000	0.000
940.395	0.000	0.000	0.000
940.716	0.000	0.000	0.000
941.038	0.000	0.000	0.000
941.358	0.000	0.000	0.000
941.679	0.000	0.000	0.000
942.000	0.000	0.000	0.000
942.321	0.000	0.000	0.000
942.642	0.000	0.000	0.000
942.962	0.000	0.000	0.000
943.283	0.000	0.000	0.000
943.604	0.000	0.000	0.000
943.924	0.000	0.000	0.000
944.245	0.000	0.000	0.000
944.565	0.000	0.000	0.000
944.885	0.000	0.000	0.000
945.205	0.000	0.000	0.000
945.526	0.000	0.000	0.000
945.846	0.000	0.000	0.000
946.166	0.000	0.000	0.000
946.486	0.000	0.000	0.000
946.806	0.000	0.000	0.000
947.126	0.000	0.000	0.000
947.446	0.000	0.000	0.000
947.765	0.000	0.000	0.000
948.085	0.000	0.000	0.000
948.405	0.000	0.000	0.000
948.724	0.000	0.000	0.000
949.044	0.000	0.000	0.000
949.363	0.000	0.000	0.000
949.683	0.000	0.000	0.000
950.002	0.000	0.000	0.000
950.321	0.000	0.000	0.000
950.641	0.000	0.000	0.000
950.960	0.000	0.000	0.000
951.279	0.000	0.000	0.000
951.598	0.000	0.000	0.000
951.917	0.000	0.000	0.000
952.236	0.000	0.000	0.000
952.555	0.000	0.000	0.000
952.874	0.000	0.000	0.000
953.192	0.000	0.000	0.000
953.511	0.000	0.000	0.000
953.830	0.000	0.000	0.000
954.148	0.000	0.000	0.000
954.467	0.000	0.000	0.000
954.785	0.000	0.000	0.000
955.104	0.000	0.000	0.000
955.422	0.000	0.000	0.000
955.740	0.000	0.000	0.000
956.059	0.000	0.000	0.000
956.377	0.000	0.000	0.000
956.695	0.000	0.000	0.000
957.013	0.000	0.000	0.000
957.331	0.000	0.000	0.000
957.649	0.000	0.000	0.000
957.967	0.000	0.000	0.000
958.284	0.000	0.000	0.000
958.602	0.000	0.000	0.000
958.920	0.000	0.000	0.000
959.238	0.000	0.000	0.000
959.555	0.000	0.000	0.000
959.873	0.000	0.000	0.000
960.190	0.000	0.000	0.000
960.507	0.000	0.000	0.000
960.825	0.000	0.000	0.000
961.142	0.000	0.000	0.000
961.459	0.000	0.000	0.000
961.776	0.000	0.000	0.000
962.093	0.000	0.000	0.000
962.410	0.000	0.000	0.000
962.727	0.000	0.000	0.000
963.044	0.000	0.000	0.000
963.361	0.000	0.000	0.000
963.678	0.000	0.000	0.000
963.995	0.000	0.000	0.000
964.311	0.000	0.000	0.000
964.628	0.000	0.000	0.000
964.944	0.000	0.000	0.000
965.261	0.000	0.000	0.000
965.577	0.000	0.000	0.000
965.894	0.000	0.000	0.000
966.210	0.000	0.000	0.000
966.526	0.000	0.000	0.000
966.842	0.000	0.000	0.000
967.158	0.000	0.000	0.000
967.474	0.000	0.000	0.000
967.790	0.000	0.000	0.000
968.106	0.000	0.000	0.000
968.422	0.000	0.000	0.000
968.738	0.000	0.000	0.000
969.054	0.000	0.000	0.000
969.369	0.000	0.000	0.000
969.685	0.000	0.000	0.000
970.001	0.000	0.000	0.000
970.316	0.000	0.000	0.000
970.632	0.000	0.000	0.000
970.947	0.000	0.000	0.000
971.262	0.000	0.000	0.000
971.577	0.000	0.000	0.000
971.893	0.000	0.000	0.000
972.208	0.000	0.000	0.000
972.523	0.000	0.000	0.000
972.838	0.000	0.000	0.000
973.153	0.000	0.000	0.000
973.468	0.000	0.000	0.000
973.783	0.000	0.000	0.000
974.097	0.000	0.000	0.000
974.412	0.000	0.000	0.000
974.727	0.000	0.000	0.000
975.041	0.000	0.000	0.000
975.356	0.000	0.000	0.000
975.670	0.000	0.000	0.000
975.985	0.000	0.000	0.000
976.299	0.000	0.000	0.000
976.613	0.000	0.000	0.000
976.928	0.000	0.000	0.000
977.242	0.000	0.000	0.000
977.556	0.000	0.000	0.000
977.870	0.000	0.000	0.000
978.184	0.000	0.000	0.000
978.498	0.000	0.000	0.000
978.812	0.000	0.000	0.000
979.125	0.000	0.000	0.000
979.439	0.000	0.000	0.000
979.753	0.000	0.000	0.000
980.066	0.000	0.000	0.000
980.380	0.000	0.000	0.000
980.693	0.000	0.000	0.000
981.007	0.000	0.000	0.000
981.320	0.000	0.000	0.000
981.634	0.000	0.000	0.000
981.947	0.000	0.000	0.000
982.260	0.000	0.000	0.000
982.573	0.000	0.000	0.000
982.886	0.000	0.000	0.000
983.199	0.000	0.000	0.000
983.512	0.000	0.000	0.000
983.825	0.000	0.000	0.000
984.138	0.000	0.000	0.000
984.451	0.000	0.000	0.000
984.763	0.000	0.000	0.000
985.076	0.000	0.000	0.000
985.388	0.000	0.000	0.000
985.701	0.000	0.000	0.000
986.013	0.000	0.000	0.000
986.326	0.000	0.000	0.000
986.638	0.000	0.000	0.000
986.950	0.000	0.000	0.000
987.263	0.000	0.000	0.000
987.575	0.000	0.000	0.000
987.887	0.000	0.000	0.000
988.199	0.000	0.000	0.000
988.511	0.000	0.000	0.000
988.823	0.000	0.000	0.000
989.135	0.000	0.000	0.000
989.446	0.000	0.000	0.000
989.758	0.000	0.000	0.000
990.070	0.000	0.000	0.000
990.381	0.000	0.000	0.000
990.693	0.000	0.000	0.000
991.004	0.000	0.000	0.000
991.316	0.000	0.000	0.000
991.627	0.000	0.000	0.000
991.938	0.000	0.000	0.000
992.249	0.000	0.000	0.000
992.561	0.000	0.000	0.000
992.872	0.000	0.000	0.000
993.183	0.000	0.000	0.000
993.494	0.000	0.000	0.000
993.805	0.000	0.000	0.000
994.115	0.000	0.000	0.000
994.426	0.000	0.000	0.000
994.737	0.000	0.000	0.000
995.048	0.000	0.000	0.000
995.358	0.000	0.000	0.000
995.669	0.000	0.000	0.000
995.979	0.000	0.000	0.000
996.290	0.000	0.000	0.000
996.600	0.000	0.000	0.000
996.910	0.000	0.000	0.000
997.220	0.000	0.000	0.000
997.531	0.000	0.000	0.000
997.841	0.000	0.000	0.000
998.151	0.000	0.000	0.000
998.461	0.000	0.000	0.000
998.771	0.000	0.000	0.000
999.081	0.000	0.000	0.000
999.390	0.000	0.000	0.000
999.700	0.000	0.000	0.000
