8/27/2025	2:03:25 PM	2:03:28 PM	2:03:31 PM
LuQY (%)	0.477000	0.496000	0.493000
QFLS LuQY (eV)	1.007000	1.004000	1.001000
QFLS HET (eV)	1.009000	1.006000	1.002000
QFLS confidence	1.000000	1.000000	1.000000
Laser intensity (suns)	0.995000	0.886000	0.779000
Bias voltage (V)	0.000000	0.000000	0.000000
SMU current density (mA/cm2)	0.000000	0.000000	0.000000
Integration Time (ms)	165.000000	165.000000	165.000000
Delay time (s)	0.000000	0.000000	0.000000
Bandgap (eV)	1.423000	1.423000	1.423000
Jsc (mA/cm2)	26.806000	26.806000	26.806000
EQE @ laser wavelength	0.900000	0.900000	0.900000
Laser spot size (cm²)	0.400000	0.400000	0.400000
Subcell area (cm²)	1.000000	1.000000	1.000000
Subcell	--	--	--
----------------------------  			
Wavelength (nm)	Luminescence Flux Density (photons/s/cm²/nm)		
			
550.033	0.000	0.000	0.000
550.412	0.000	0.000	0.000
550.791	0.000	0.000	0.000
551.169	0.000	0.000	0.000
551.548	0.000	0.000	0.000
551.927	0.000	0.000	0.000
552.305	0.000	0.000	0.000
552.684	0.000	0.000	0.000
553.062	0.000	0.000	0.000
553.441	0.000	0.000	0.000
553.819	0.000	0.000	0.000
554.197	0.000	0.000	0.000
554.576	0.000	0.000	0.000
554.954	0.000	0.000	0.000
555.332	0.000	0.000	0.000
555.710	0.000	0.000	0.000
556.088	0.000	0.000	0.000
556.466	0.000	0.000	0.000
556.844	0.000	0.000	0.000
557.222	0.000	0.000	0.000
557.600	0.000	0.000	0.000
557.978	0.000	0.000	0.000
558.356	0.000	0.000	0.000
558.734	0.000	0.000	0.000
559.112	0.000	0.000	0.000
559.489	0.000	0.000	0.000
559.867	0.000	0.000	0.000
560.245	0.000	0.000	0.000
560.622	0.000	0.000	0.000
561.000	0.000	0.000	0.000
561.377	0.000	0.000	0.000
561.755	0.000	0.000	0.000
562.132	0.000	0.000	0.000
562.510	0.000	0.000	0.000
562.887	0.000	0.000	0.000
563.264	0.000	0.000	0.000
563.641	0.000	0.000	0.000
564.018	0.000	0.000	0.000
564.396	0.000	0.000	0.000
564.773	0.000	0.000	0.000
565.150	0.000	0.000	0.000
565.527	0.000	0.000	0.000
565.904	0.000	0.000	0.000
566.281	0.000	0.000	0.000
566.657	0.000	0.000	0.000
567.034	0.000	0.000	0.000
567.411	0.000	0.000	0.000
567.788	0.000	0.000	0.000
568.165	0.000	0.000	0.000
568.541	0.000	0.000	0.000
568.918	0.000	0.000	0.000
569.294	0.000	0.000	0.000
569.671	0.000	0.000	0.000
570.047	0.000	0.000	0.000
570.424	0.000	0.000	0.000
570.800	0.000	0.000	0.000
571.176	0.000	0.000	0.000
571.553	0.000	0.000	0.000
571.929	0.000	0.000	0.000
572.305	0.000	0.000	0.000
572.681	0.000	0.000	0.000
573.057	0.000	0.000	0.000
573.433	0.000	0.000	0.000
573.809	0.000	0.000	0.000
574.185	0.000	0.000	0.000
574.561	0.000	0.000	0.000
574.937	0.000	0.000	0.000
575.313	0.000	0.000	0.000
575.689	0.000	0.000	0.000
576.064	0.000	0.000	0.000
576.440	0.000	0.000	0.000
576.816	0.000	0.000	0.000
577.191	0.000	0.000	0.000
577.567	0.000	0.000	0.000
577.942	0.000	0.000	0.000
578.318	0.000	0.000	0.000
578.693	0.000	0.000	0.000
579.069	0.000	0.000	0.000
579.444	0.000	0.000	0.000
579.819	0.000	0.000	0.000
580.195	0.000	0.000	0.000
580.570	0.000	0.000	0.000
580.945	0.000	0.000	0.000
581.320	0.000	0.000	0.000
581.695	0.000	0.000	0.000
582.070	0.000	0.000	0.000
582.445	0.000	0.000	0.000
582.820	0.000	0.000	0.000
583.195	0.000	0.000	0.000
583.570	0.000	0.000	0.000
583.944	0.000	0.000	0.000
584.319	0.000	0.000	0.000
584.694	0.000	0.000	0.000
585.069	0.000	0.000	0.000
585.443	0.000	0.000	0.000
585.818	0.000	0.000	0.000
586.192	0.000	0.000	0.000
586.567	0.000	0.000	0.000
586.941	0.000	0.000	0.000
587.315	0.000	0.000	0.000
587.690	0.000	0.000	0.000
588.064	0.000	0.000	0.000
588.438	0.000	0.000	0.000
588.812	0.000	0.000	0.000
589.187	0.000	0.000	0.000
589.561	0.000	0.000	0.000
589.935	0.000	0.000	0.000
590.309	0.000	0.000	0.000
590.683	0.000	0.000	0.000
591.057	0.000	0.000	0.000
591.430	0.000	0.000	0.000
591.804	0.000	0.000	0.000
592.178	0.000	0.000	0.000
592.552	0.000	0.000	0.000
592.925	0.000	0.000	0.000
593.299	0.000	0.000	0.000
593.673	0.000	0.000	0.000
594.046	0.000	0.000	0.000
594.420	0.000	0.000	0.000
594.793	0.000	0.000	0.000
595.167	0.000	0.000	0.000
595.540	0.000	0.000	0.000
595.913	0.000	0.000	0.000
596.287	0.000	0.000	0.000
596.660	0.000	0.000	0.000
597.033	0.000	0.000	0.000
597.406	0.000	0.000	0.000
597.779	0.000	0.000	0.000
598.152	0.000	0.000	0.000
598.525	0.000	0.000	0.000
598.898	0.000	0.000	0.000
599.271	0.000	0.000	0.000
599.644	0.000	0.000	0.000
600.017	0.000	0.000	0.000
600.389	0.000	0.000	0.000
600.762	0.000	0.000	0.000
601.135	0.000	0.000	0.000
601.508	0.000	0.000	0.000
601.880	0.000	0.000	0.000
602.253	0.000	0.000	0.000
602.625	0.000	0.000	0.000
602.998	0.000	0.000	0.000
603.370	0.000	0.000	0.000
603.742	0.000	0.000	0.000
604.115	0.000	0.000	0.000
604.487	0.000	0.000	0.000
604.859	0.000	0.000	0.000
605.231	0.000	0.000	0.000
605.603	0.000	0.000	0.000
605.975	0.000	0.000	0.000
606.347	0.000	0.000	0.000
606.719	0.000	0.000	0.000
607.091	0.000	0.000	0.000
607.463	0.000	0.000	0.000
607.835	0.000	0.000	0.000
608.207	0.000	0.000	0.000
608.579	0.000	0.000	0.000
608.950	0.000	0.000	0.000
609.322	0.000	0.000	0.000
609.694	0.000	0.000	0.000
610.065	0.000	0.000	0.000
610.437	0.000	0.000	0.000
610.808	0.000	0.000	0.000
611.179	0.000	0.000	0.000
611.551	0.000	0.000	0.000
611.922	0.000	0.000	0.000
612.293	0.000	0.000	0.000
612.665	0.000	0.000	0.000
613.036	0.000	0.000	0.000
613.407	0.000	0.000	0.000
613.778	0.000	0.000	0.000
614.149	0.000	0.000	0.000
614.520	0.000	0.000	0.000
614.891	0.000	0.000	0.000
615.262	0.000	0.000	0.000
615.633	0.000	0.000	0.000
616.004	0.000	0.000	0.000
616.374	0.000	0.000	0.000
616.745	0.000	0.000	0.000
617.116	0.000	0.000	0.000
617.486	0.000	0.000	0.000
617.857	0.000	0.000	0.000
618.228	0.000	0.000	0.000
618.598	0.000	0.000	0.000
618.968	0.000	0.000	0.000
619.339	0.000	0.000	0.000
619.709	0.000	0.000	0.000
620.079	0.000	0.000	0.000
620.450	0.000	0.000	0.000
620.820	0.000	0.000	0.000
621.190	0.000	0.000	0.000
621.560	0.000	0.000	0.000
621.930	0.000	0.000	0.000
622.300	0.000	0.000	0.000
622.670	0.000	0.000	0.000
623.040	0.000	0.000	0.000
623.410	0.000	0.000	0.000
623.780	0.000	0.000	0.000
624.150	0.000	0.000	0.000
624.519	0.000	0.000	0.000
624.889	0.000	0.000	0.000
625.259	0.000	0.000	0.000
625.628	0.000	0.000	0.000
625.998	0.000	0.000	0.000
626.367	0.000	0.000	0.000
626.737	0.000	0.000	0.000
627.106	0.000	0.000	0.000
627.475	0.000	0.000	0.000
627.845	0.000	0.000	0.000
628.214	0.000	0.000	0.000
628.583	0.000	0.000	0.000
628.952	0.000	0.000	0.000
629.322	0.000	0.000	0.000
629.691	0.000	0.000	0.000
630.060	0.000	0.000	0.000
630.429	0.000	0.000	0.000
630.798	0.000	0.000	0.000
631.166	0.000	0.000	0.000
631.535	0.000	0.000	0.000
631.904	0.000	0.000	0.000
632.273	0.000	0.000	0.000
632.641	0.000	0.000	0.000
633.010	0.000	0.000	0.000
633.379	0.000	0.000	0.000
633.747	0.000	0.000	0.000
634.116	0.000	0.000	0.000
634.484	0.000	0.000	0.000
634.853	0.000	0.000	0.000
635.221	0.000	0.000	0.000
635.589	0.000	0.000	0.000
635.958	0.000	0.000	0.000
636.326	0.000	0.000	0.000
636.694	0.000	0.000	0.000
637.062	0.000	0.000	0.000
637.430	0.000	0.000	0.000
637.798	0.000	0.000	0.000
638.166	0.000	0.000	0.000
638.534	0.000	0.000	0.000
638.902	0.000	0.000	0.000
639.270	0.000	0.000	0.000
639.638	0.000	0.000	0.000
640.005	0.000	0.000	0.000
640.373	0.000	0.000	0.000
640.741	0.000	0.000	0.000
641.108	0.000	0.000	0.000
641.476	0.000	0.000	0.000
641.843	0.000	0.000	0.000
642.211	0.000	0.000	0.000
642.578	0.000	0.000	0.000
642.946	0.000	0.000	0.000
643.313	0.000	0.000	0.000
643.680	0.000	0.000	0.000
644.047	0.000	0.000	0.000
644.415	0.000	0.000	0.000
644.782	0.000	0.000	0.000
645.149	0.000	0.000	0.000
645.516	0.000	0.000	0.000
645.883	0.000	0.000	0.000
646.250	0.000	0.000	0.000
646.617	0.000	0.000	0.000
646.983	0.000	0.000	0.000
647.350	0.000	0.000	0.000
647.717	0.000	0.000	0.000
648.084	0.000	0.000	0.000
648.450	0.000	0.000	0.000
648.817	0.000	0.000	0.000
649.183	0.000	0.000	0.000
649.550	0.000	0.000	0.000
649.916	0.000	0.000	0.000
650.283	0.000	0.000	0.000
650.649	0.000	0.000	0.000
651.015	0.000	0.000	0.000
651.382	0.000	0.000	0.000
651.748	0.000	0.000	0.000
652.114	0.000	0.000	0.000
652.480	0.000	0.000	0.000
652.846	0.000	0.000	0.000
653.212	0.000	0.000	0.000
653.578	0.000	0.000	0.000
653.944	0.000	0.000	0.000
654.310	0.000	0.000	0.000
654.676	0.000	0.000	0.000
655.042	0.000	0.000	0.000
655.407	0.000	0.000	0.000
655.773	0.000	0.000	0.000
656.139	0.000	0.000	0.000
656.504	0.000	0.000	0.000
656.870	0.000	0.000	0.000
657.235	0.000	0.000	0.000
657.601	0.000	0.000	0.000
657.966	0.000	0.000	0.000
658.331	0.000	0.000	0.000
658.697	0.000	0.000	0.000
659.062	0.000	0.000	0.000
659.427	0.000	0.000	0.000
659.792	0.000	0.000	0.000
660.157	0.000	0.000	0.000
660.522	0.000	0.000	0.000
660.887	0.000	0.000	0.000
661.252	0.000	0.000	0.000
661.617	0.000	0.000	0.000
661.982	0.000	0.000	0.000
662.347	0.000	0.000	0.000
662.712	0.000	0.000	0.000
663.076	0.000	0.000	0.000
663.441	0.000	0.000	0.000
663.806	0.000	0.000	0.000
664.170	0.000	0.000	0.000
664.535	0.000	0.000	0.000
664.899	0.000	0.000	0.000
665.264	0.000	0.000	0.000
665.628	0.000	0.000	0.000
665.992	0.000	0.000	0.000
666.357	0.000	0.000	0.000
666.721	0.000	0.000	0.000
667.085	0.000	0.000	0.000
667.449	0.000	0.000	0.000
667.813	0.000	0.000	0.000
668.177	0.000	0.000	0.000
668.541	0.000	0.000	0.000
668.905	0.000	0.000	0.000
669.269	0.000	0.000	0.000
669.633	0.000	0.000	0.000
669.997	0.000	0.000	0.000
670.361	0.000	0.000	0.000
670.724	0.000	0.000	0.000
671.088	0.000	0.000	0.000
671.451	0.000	0.000	0.000
671.815	0.000	0.000	0.000
672.179	0.000	0.000	0.000
672.542	0.000	0.000	0.000
672.905	0.000	0.000	0.000
673.269	0.000	0.000	0.000
673.632	0.000	0.000	0.000
673.995	0.000	0.000	0.000
674.358	0.000	0.000	0.000
674.722	0.000	0.000	0.000
675.085	0.000	0.000	0.000
675.448	0.000	0.000	0.000
675.811	0.000	0.000	0.000
676.174	0.000	0.000	0.000
676.537	0.000	0.000	0.000
676.900	0.000	0.000	0.000
677.262	0.000	0.000	0.000
677.625	0.000	0.000	0.000
677.988	0.000	0.000	0.000
678.350	0.000	0.000	0.000
678.713	0.000	0.000	0.000
679.076	0.000	0.000	0.000
679.438	0.000	0.000	0.000
679.801	0.000	0.000	0.000
680.163	0.000	0.000	0.000
680.525	0.000	0.000	0.000
680.888	0.000	0.000	0.000
681.250	0.000	0.000	0.000
681.612	0.000	0.000	0.000
681.974	0.000	0.000	0.000
682.337	0.000	0.000	0.000
682.699	0.000	0.000	0.000
683.061	0.000	0.000	0.000
683.423	0.000	0.000	0.000
683.785	0.000	0.000	0.000
684.146	0.000	0.000	0.000
684.508	0.000	0.000	0.000
684.870	0.000	0.000	0.000
685.232	0.000	0.000	0.000
685.593	0.000	0.000	0.000
685.955	0.000	0.000	0.000
686.317	0.000	0.000	0.000
686.678	0.000	0.000	0.000
687.040	0.000	0.000	0.000
687.401	0.000	0.000	0.000
687.762	0.000	0.000	0.000
688.124	0.000	0.000	0.000
688.485	0.000	0.000	0.000
688.846	0.000	0.000	0.000
689.208	0.000	0.000	0.000
689.569	0.000	0.000	0.000
689.930	0.000	0.000	0.000
690.291	0.000	0.000	0.000
690.652	0.000	0.000	0.000
691.013	0.000	0.000	0.000
691.374	0.000	0.000	0.000
691.734	0.000	0.000	0.000
692.095	0.000	0.000	0.000
692.456	0.000	0.000	0.000
692.817	0.000	0.000	0.000
693.177	0.000	0.000	0.000
693.538	0.000	0.000	0.000
693.898	0.000	0.000	0.000
694.259	0.000	0.000	0.000
694.619	0.000	0.000	0.000
694.980	0.000	0.000	0.000
695.340	0.000	0.000	0.000
695.700	0.000	0.000	0.000
696.061	0.000	0.000	0.000
696.421	0.000	0.000	0.000
696.781	0.000	0.000	0.000
697.141	0.000	0.000	0.000
697.501	0.000	0.000	0.000
697.861	0.000	0.000	0.000
698.221	0.000	0.000	0.000
698.581	0.000	0.000	0.000
698.941	0.000	0.000	0.000
699.301	0.000	0.000	0.000
699.660	0.000	0.000	0.000
700.020	0.000	0.000	0.000
700.380	0.000	0.000	0.000
700.739	0.000	0.000	0.000
701.099	0.000	0.000	0.000
701.458	0.000	0.000	0.000
701.818	0.000	0.000	0.000
702.177	0.000	0.000	0.000
702.536	0.000	0.000	0.000
702.896	0.000	0.000	0.000
703.255	0.000	0.000	0.000
703.614	0.000	0.000	0.000
703.973	0.000	0.000	0.000
704.332	0.000	0.000	0.000
704.692	0.000	0.000	0.000
705.051	0.000	0.000	0.000
705.409	0.000	0.000	0.000
705.768	0.000	0.000	0.000
706.127	0.000	0.000	0.000
706.486	0.000	0.000	0.000
706.845	0.000	0.000	0.000
707.203	0.000	0.000	0.000
707.562	0.000	0.000	0.000
707.921	0.000	0.000	0.000
708.279	0.000	0.000	0.000
708.638	0.000	0.000	0.000
708.996	0.000	0.000	0.000
709.355	0.000	0.000	0.000
709.713	0.000	0.000	0.000
710.071	0.000	0.000	0.000
710.429	0.000	0.000	0.000
710.788	0.000	0.000	0.000
711.146	0.000	0.000	0.000
711.504	0.000	0.000	0.000
711.862	0.000	0.000	0.000
712.220	0.000	0.000	0.000
712.578	0.000	0.000	0.000
712.936	0.000	0.000	0.000
713.294	0.000	0.000	0.000
713.651	0.000	0.000	0.000
714.009	0.000	0.000	0.000
714.367	0.000	0.000	0.000
714.724	0.000	0.000	0.000
715.082	0.000	0.000	0.000
715.440	0.000	0.000	0.000
715.797	0.000	0.000	0.000
716.154	0.000	0.000	0.000
716.512	0.000	0.000	0.000
716.869	0.000	0.000	0.000
717.226	0.000	0.000	0.000
717.584	0.000	0.000	0.000
717.941	0.000	0.000	0.000
718.298	0.000	0.000	0.000
718.655	0.000	0.000	0.000
719.012	0.000	0.000	0.000
719.369	0.000	0.000	0.000
719.726	0.000	0.000	0.000
720.083	0.000	0.000	0.000
720.440	0.000	0.000	0.000
720.797	0.000	0.000	0.000
721.153	0.000	0.000	0.000
721.510	0.000	0.000	0.000
721.867	0.000	0.000	0.000
722.223	0.000	0.000	0.000
722.580	0.000	0.000	0.000
722.936	0.000	0.000	0.000
723.293	0.000	0.000	0.000
723.649	0.000	0.000	0.000
724.005	0.000	0.000	0.000
724.362	0.000	0.000	0.000
724.718	0.000	0.000	0.000
725.074	0.000	0.000	0.000
725.430	0.000	0.000	0.000
725.786	0.000	0.000	0.000
726.142	0.000	0.000	0.000
726.498	0.000	0.000	0.000
726.854	0.000	0.000	0.000
727.210	0.000	0.000	0.000
727.566	0.000	0.000	0.000
727.921	0.000	0.000	0.000
728.277	0.000	0.000	0.000
728.633	0.000	0.000	0.000
728.988	0.000	0.000	0.000
729.344	0.000	0.000	0.000
729.700	0.000	0.000	0.000
730.055	0.000	0.000	0.000
730.410	0.000	0.000	0.000
730.766	0.000	0.000	0.000
731.121	0.000	0.000	0.000
731.476	0.000	0.000	0.000
731.831	0.000	0.000	0.000
732.187	0.000	0.000	0.000
732.542	0.000	0.000	0.000
732.897	0.000	0.000	0.000
733.252	0.000	0.000	0.000
733.607	0.000	0.000	0.000
733.962	0.000	0.000	0.000
734.316	0.000	0.000	0.000
734.671	0.000	0.000	0.000
735.026	0.000	0.000	0.000
735.381	0.000	0.000	0.000
735.735	0.000	0.000	0.000
736.090	0.000	0.000	0.000
736.444	0.000	0.000	0.000
736.799	0.000	0.000	0.000
737.153	0.000	0.000	0.000
737.508	0.000	0.000	0.000
737.862	0.000	0.000	0.000
738.216	0.000	0.000	0.000
738.571	0.000	0.000	0.000
738.925	0.000	0.000	0.000
739.279	0.000	0.000	0.000
739.633	0.000	0.000	0.000
739.987	0.000	0.000	0.000
740.341	0.000	0.000	0.000
740.695	0.000	0.000	0.000
741.049	0.000	0.000	0.000
741.403	0.000	0.000	0.000
741.756	0.000	0.000	0.000
742.110	0.000	0.000	0.000
742.464	0.000	0.000	0.000
742.817	0.000	0.000	0.000
743.171	0.000	0.000	0.000
743.524	0.000	0.000	0.000
743.878	0.000	0.000	0.000
744.231	0.000	0.000	0.000
744.585	0.000	0.000	0.000
744.938	0.000	0.000	0.000
745.291	0.000	0.000	0.000
745.644	0.000	0.000	0.000
745.998	0.000	0.000	0.000
746.351	0.000	0.000	0.000
746.704	0.000	0.000	0.000
747.057	0.000	0.000	0.000
747.410	0.000	0.000	0.000
747.762	0.000	0.000	0.000
748.115	0.000	0.000	0.000
748.468	0.000	0.000	0.000
748.821	0.000	0.000	0.000
749.174	0.000	0.000	0.000
749.526	0.000	0.000	0.000
749.879	0.000	0.000	0.000
750.231	0.000	0.000	0.000
750.584	0.000	0.000	0.000
750.936	0.000	0.000	0.000
751.289	0.000	0.000	0.000
751.641	0.000	0.000	0.000
751.993	0.000	0.000	0.000
752.345	0.000	0.000	0.000
752.697	0.000	0.000	0.000
753.050	0.000	0.000	0.000
753.402	0.000	0.000	0.000
753.754	0.000	0.000	0.000
754.106	0.000	0.000	0.000
754.458	0.000	0.000	0.000
754.809	0.000	0.000	0.000
755.161	0.000	0.000	0.000
755.513	0.000	0.000	0.000
755.865	0.000	0.000	0.000
756.216	0.000	0.000	0.000
756.568	0.000	0.000	0.000
756.919	0.000	0.000	0.000
757.271	0.000	0.000	0.000
757.622	0.000	0.000	0.000
757.974	0.000	0.000	0.000
758.325	0.000	0.000	0.000
758.676	0.000	0.000	0.000
759.028	0.000	0.000	0.000
759.379	0.000	0.000	0.000
759.730	0.000	0.000	0.000
760.081	0.000	0.000	0.000
760.432	0.000	0.000	0.000
760.783	0.000	0.000	0.000
761.134	0.000	0.000	0.000
761.485	0.000	0.000	0.000
761.835	0.000	0.000	0.000
762.186	0.000	0.000	0.000
762.537	0.000	0.000	0.000
762.888	0.000	0.000	0.000
763.238	0.000	0.000	0.000
763.589	0.000	0.000	0.000
763.939	0.000	0.000	0.000
764.290	0.000	0.000	0.000
764.640	0.000	0.000	0.000
764.990	0.000	0.000	0.000
765.341	0.000	0.000	0.000
765.691	0.000	0.000	0.000
766.041	0.000	0.000	0.000
766.391	0.000	0.000	0.000
766.741	0.000	0.000	0.000
767.091	0.000	0.000	0.000
767.441	0.000	0.000	0.000
767.791	0.000	0.000	0.000
768.141	0.000	0.000	0.000
768.491	0.000	0.000	0.000
768.841	0.000	0.000	0.000
769.190	0.000	0.000	0.000
769.540	0.000	0.000	0.000
769.890	0.000	0.000	0.000
770.239	0.000	0.000	0.000
770.589	0.000	0.000	0.000
770.938	0.000	0.000	0.000
771.288	0.000	0.000	0.000
771.637	0.000	0.000	0.000
771.986	0.000	0.000	0.000
772.335	0.000	0.000	0.000
772.685	0.000	0.000	0.000
773.034	0.000	0.000	0.000
773.383	0.000	0.000	0.000
773.732	0.000	0.000	0.000
774.081	0.000	0.000	0.000
774.430	0.000	0.000	0.000
774.779	0.000	0.000	0.000
775.127	0.000	0.000	0.000
775.476	0.000	0.000	0.000
775.825	0.000	0.000	0.000
776.174	0.000	0.000	0.000
776.522	0.000	0.000	0.000
776.871	0.000	0.000	0.000
777.219	0.000	0.000	0.000
777.568	0.000	0.000	0.000
777.916	0.000	0.000	0.000
778.264	0.000	0.000	0.000
778.613	0.000	0.000	0.000
778.961	0.000	0.000	0.000
779.309	0.000	0.000	0.000
779.657	0.000	0.000	0.000
780.005	0.000	0.000	0.000
780.353	0.000	0.000	0.000
780.701	0.000	0.000	0.000
781.049	0.000	0.000	0.000
781.397	0.000	0.000	0.000
781.745	0.000	0.000	0.000
782.093	0.000	0.000	0.000
782.440	0.000	0.000	0.000
782.788	0.000	0.000	0.000
783.136	0.000	0.000	0.000
783.483	0.000	0.000	0.000
783.831	0.000	0.000	0.000
784.178	0.000	0.000	0.000
784.525	0.000	0.000	0.000
784.873	0.000	0.000	0.000
785.220	0.000	0.000	0.000
785.567	0.000	0.000	0.000
785.914	0.000	0.000	0.000
786.262	0.000	0.000	0.000
786.609	0.000	0.000	0.000
786.956	0.000	0.000	0.000
787.303	0.000	0.000	0.000
787.649	0.000	0.000	0.000
787.996	0.000	0.000	0.000
788.343	0.000	0.000	0.000
788.690	0.000	0.000	0.000
789.037	0.000	0.000	0.000
789.383	0.000	0.000	0.000
789.730	0.000	0.000	0.000
790.076	0.000	0.000	0.000
790.423	0.000	0.000	0.000
790.769	0.000	0.000	0.000
791.116	0.000	0.000	0.000
791.462	0.000	0.000	0.000
791.808	0.000	0.000	0.000
792.154	0.000	0.000	0.000
792.501	0.000	0.000	0.000
792.847	0.000	0.000	0.000
793.193	0.000	0.000	0.000
793.539	0.000	0.000	0.000
793.885	0.000	0.000	0.000
794.231	0.000	0.000	0.000
794.576	0.000	0.000	0.000
794.922	0.000	0.000	0.000
795.268	0.000	0.000	0.000
795.614	0.000	0.000	0.000
795.959	0.000	0.000	0.000
796.305	0.000	0.000	0.000
796.650	0.000	0.000	0.000
796.996	0.000	0.000	0.000
797.341	0.000	0.000	0.000
797.686	0.000	0.000	0.000
798.032	0.000	0.000	0.000
798.377	0.000	0.000	0.000
798.722	0.000	0.000	0.000
799.067	0.000	0.000	0.000
799.412	0.000	0.000	0.000
799.757	0.000	0.000	0.000
800.102	0.000	0.000	0.000
800.447	0.000	0.000	0.000
800.792	142846533327.109	0.000	115748245035.642
801.137	146214212942.497	0.000	117993364779.234
801.482	147517830858.130	129434830387.161	118826231780.889
801.827	152261551606.687	144824764113.393	121976641743.670
802.171	153275476652.180	150944525995.119	123932068617.121
802.516	159467661751.440	157353980746.985	128820635800.748
802.860	170584625643.095	157643673617.126	134867974464.938
803.205	176740599133.588	159888793360.717	146998863402.086
803.549	186807426370.983	162532240800.753	153625587806.558
803.894	202450841358.589	171295450122.513	161338660474.058
804.238	213712651685.314	185635247194.485	162750913215.995
804.582	220017642268.218	193676618147.824	167132562914.769
804.927	226699400134.602	197997972420.105	169093513592.947
805.271	233272216296.643	205841775132.817	177118885812.897
805.615	242314377757.130	211797254970.247	182529657128.611
805.959	253317489895.795	219168976964.138	196619450890.334
806.303	258365122197.031	223853470250.896	204572195307.389
806.647	260253445072.314	234820268488.114	212198114611.414
806.991	261088664805.612	243281407525.437	213723298472.219
807.335	279318243332.377	247457506191.927	215357424037.368
807.678	289958216456.565	247711703502.062	224544841103.646
808.022	300133962055.758	248591563919.186	237267538233.266
808.366	301809106985.640	260281162234.234	246225921988.723
808.709	315355931201.209	276559201009.393	257405693585.980
809.053	327154778098.641	289632614701.301	263013787481.673
809.397	342049001496.942	297462096438.794	272809743702.071
809.740	351917790105.596	301431461598.732	280493560663.053
810.083	365646695291.804	311191001625.003	296043275555.656
810.427	372711436952.612	313157476107.908	306385474687.972
810.770	385092942956.089	331729735113.124	314032875454.826
811.113	395762887835.557	341853437080.673	317601662479.358
811.457	407780231897.756	357694481526.299	329801087512.196
811.800	421545553278.092	368910669317.684	341381437244.860
812.143	427007982397.273	371823964847.914	345023056657.647
812.486	439061742653.600	384606048986.798	353617278471.826
812.829	452346162802.079	397920096137.669	360453543323.107
813.172	473307774229.876	412125787505.985	374294049823.342
813.515	483679024483.351	419210373946.738	379552711923.696
813.857	494159830197.250	440098948400.920	391311664675.875
814.200	510081890445.542	453099529704.571	402121136771.045
814.543	535060535422.220	469496330281.367	418517937347.842
814.886	542802454625.518	472125661331.544	424068747342.659
815.228	551573824019.144	484178030565.636	439831685218.555
815.571	562303712409.170	496006542340.307	452209508685.548
815.913	583763489189.223	510691474915.052	468359272439.820
816.256	611229073805.330	532480838710.498	483007584235.077
816.598	636277686975.221	552036334957.167	499084106430.372
816.940	652537313067.956	562619740229.240	522667888420.737
817.283	663157339119.518	573239766280.802	536583784626.232
817.625	671873084637.697	585434485850.354	546215049631.613
817.967	689927128925.351	603305426240.568	553282860072.825
818.309	710508006997.688	624252512107.786	569652348504.025
818.651	742807534506.231	636593714795.290	581261135601.767
818.993	765292693111.951	652304029195.704	599351800668.910
819.335	779721280230.280	667465031903.796	613414179992.357
819.677	781149490630.318	684090865791.413	637364169777.603
820.019	806710794713.042	693722130796.795	655235110167.817
820.361	833224239062.458	705770367248.394	671311632363.112
820.702	848824691124.407	724483585566.836	680137240219.755
821.044	862008171740.139	751399858490.621	692588305245.724
821.386	871785919863.473	774177983332.247	709507105369.246
821.727	904671379843.827	797542040645.682	732504954887.801
822.069	923531081280.220	820430027825.772	754843630375.568
822.410	962532211435.094	839655937057.048	763815721350.163
822.752	989338622020.415	860603022924.266	782748664345.534
823.093	1015961928708.295	879352862022.196	796920906007.446
823.434	1027497474247.061	902240849202.285	824752698418.435
823.776	1049757361028.579	919927703843.545	854525334887.509
824.117	1072378773484.239	942732731660.046	879900977755.790
824.458	1100912600558.991	967410636157.129	908802035552.225
824.799	1131098965881.315	993190232819.260	926135325615.652
825.140	1169805083946.681	1020144967790.776	957864059969.045
825.481	1206564879187.128	1049560148597.567	970937473660.951
825.822	1234694752468.029	1077506406517.627	997782039415.963
826.163	1260033672264.141	1104865095282.994	1000536269828.584
826.503	1291604443376.860	1131400471341.246	1026596909520.938
826.844	1313257757907.727	1148818868914.546	1038123248718.491
827.185	1341465987381.611	1175369956970.251	1071302902446.911
827.526	1381049037251.223	1208767842060.686	1099426478619.538
827.866	1424992949710.195	1246803329315.089	1130076434368.232
828.207	1465908794251.825	1281810748652.152	1154928747884.945
828.547	1490076746395.892	1306024183164.032	1188973945017.876
828.888	1524884899592.053	1342498684119.583	1215265209666.040
829.228	1554212620157.329	1371456105182.772	1238668138197.927
829.568	1599351492363.086	1411448594776.116	1266225831264.049
829.908	1636335206280.347	1435621684896.736	1296154419032.435
830.249	1688877329968.022	1473496572643.328	1334771951636.804
830.589	1745993345212.684	1508423221838.372	1380859145367.847
830.929	1776898009734.913	1543237512595.341	1409902083111.628
831.269	1821804677556.765	1582275100019.629	1453613836224.588
831.609	1851487456014.788	1621478769681.168	1481616457411.402
831.949	1914103953255.641	1658193699510.323	1522628092939.531
832.289	1936829499659.677	1695520503076.755	1552841463529.412
832.629	1981014288037.820	1740172219664.865	1597478760812.228
832.968	2028278927771.997	1794194313848.725	1638361360232.815
833.308	2097235218449.545	1831644932633.407	1676893114316.445
833.648	2159648483477.517	1879941807802.821	1708626758718.483
833.987	2204820931024.903	1919844136469.679	1735918445778.363
834.327	2253729493078.976	1979490834746.021	1776381076492.211
834.666	2307102335622.023	2024748287510.599	1818618849339.219
835.006	2361005644661.702	2070505992556.322	1879714220514.232
835.345	2403017248392.933	2107408076914.836	1925132170493.941
835.684	2445982401145.832	2166652048909.489	1968513518250.066
836.024	2493862717179.193	2222531614654.518	2024049282259.770
836.363	2562950351658.034	2282114175420.417	2090156994761.374
836.702	2613429641158.117	2313897431772.320	2138728525776.948
837.041	2693125333444.944	2377295816385.275	2165886561341.786
837.380	2755564250593.084	2426039751642.164	2208886664279.049
837.719	2845375052262.329	2489586869812.034	2268585433492.187
838.058	2908436624954.448	2537626213088.157	2357108029528.257
838.397	2994528576237.405	2612681257773.156	2419310923551.085
838.736	3063587182937.632	2662793214258.875	2479669537805.877
839.074	3152176200835.351	2739466631436.282	2534341747009.885
839.413	3230189383119.327	2802008519438.471	2590900437820.935
839.752	3306036108730.734	2875364380413.756	2641290982312.555
840.090	3385518725364.841	2943947674104.687	2687572839013.894
840.429	3474618081443.750	3004074636514.261	2749575239383.658
840.767	3564332830286.350	3082151509263.112	2819131545010.635
841.106	3652852902917.658	3151890607946.883	2895077665194.892
841.444	3752800909188.229	3256262734758.423	2962259143959.866
841.783	3825071073531.415	3345258737355.550	3028324609584.574
842.121	3916794771661.719	3417584674551.955	3096691820059.772
842.459	3996491486875.348	3493610067600.709	3179825944584.400
842.797	4107504901526.788	3562142828707.654	3284357447354.197
843.135	4180857424718.476	3651646816754.328	3372149980532.146
843.473	4275130130802.507	3730963783664.449	3436951517801.112
843.811	4360527310201.988	3832612674745.451	3496145779515.827
844.149	4473158688175.115	3931033004256.047	3554109767166.563
844.487	4593078340657.688	4014771735775.055	3642069606131.319
844.825	4735549823230.884	4114057768237.628	3729928424965.998
845.163	4854765064975.507	4226038833768.293	3838510206405.719
845.501	4965732857091.605	4336630150946.651	3946500122398.183
845.838	5081260038546.659	4439400885850.686	4055392464414.792
846.176	5200085466229.834	4524722903472.815	4143354144647.792
846.513	5321275570457.132	4614695289701.826	4232773029147.201
846.851	5429458342063.889	4724163842423.025	4325772362036.677
847.188	5546340696945.365	4836209761512.896	4422703416379.801
847.526	5657430547571.409	4954255514388.085	4506378828729.806
847.863	5793155521011.695	5100938553312.931	4626305072981.802
848.200	5910060710503.387	5199179931850.685	4744440843415.511
848.537	6059760296147.565	5323667402747.271	4867177476761.521
848.875	6202669795977.095	5435270701410.197	5006295873660.347
849.212	6352601302469.686	5576545178383.006	5096452652516.353
849.549	6491186174661.170	5706178891724.477	5215390033429.487
849.886	6646287632157.891	5828473002973.618	5300426494926.574
850.223	6776783403789.703	5947605042894.444	5421577182559.781
850.560	6939399076983.741	6081741373137.396	5547756578348.396
850.896	7105569829983.173	6231823495530.430	5680458564593.109
851.233	7283863516433.248	6344592582793.562	5811173879659.034
851.570	7454214562099.058	6483773476557.344	5964527325925.375
851.906	7651775460680.635	6629472459899.295	6109795558753.887
852.243	7811868596382.559	6824489813114.484	6248259793963.254
852.580	7946866394502.314	6987445735105.195	6368542790045.665
852.916	8131240027638.997	7162109709168.666	6504613683417.925
853.253	8316330323292.702	7298164947798.259	6627877635530.027
853.589	8541097903716.969	7480023779811.670	6760258934222.518
853.925	8677250483902.764	7661066479747.679	6919915303522.812
854.261	8897392287038.668	7839061614939.728	7089115727210.226
854.598	9093815202896.297	7978811828685.853	7267072256986.577
854.934	9315560443793.311	8078719800643.645	7418244618727.091
855.270	9534939245828.094	8285101256865.692	7617919668509.449
855.606	9694600832055.074	8457559657377.495	7747935301643.255
855.942	9924243783907.230	8688939501063.489	7916896565044.515
856.278	10143087595224.910	8878897356026.547	8073719165264.937
856.614	10375263644057.781	9059426342122.920	8261534458967.290
856.950	10602380989637.418	9258914396923.385	8452673798348.507
857.285	10819910953771.451	9459034109023.682	8668315303402.335
857.621	11047549071385.650	9660992634342.074	8838178379071.660
857.957	11271211481693.742	9863196048336.711	9035835808031.045
858.292	11544818088492.139	10113739709597.137	9237364810348.162
858.628	11760464151678.680	10337626471095.311	9417012033541.777
858.963	12054525202796.764	10571380323301.863	9638378143853.969
859.299	12317026302483.676	10782021553602.754	9844863124230.922
859.634	12635531110154.016	10992530314882.869	10072390731838.334
859.969	12941995251031.088	11250927598953.301	10278065758773.980
860.305	13216577218534.564	11464509846100.734	10464800170763.246
860.640	13501359402930.326	11742128947695.234	10721175030217.344
860.975	13732109184924.084	11979036749033.092	10957203114506.043
861.310	14011070199771.437	12279712416144.543	11239189810626.852
861.645	14285432749476.025	12554918842585.391	11499387756708.293
861.980	14590856880674.166	12856337154554.621	11752519733616.770
862.315	14923376910742.412	13127803760609.756	11979483810849.326
862.650	15266639229957.525	13383385909047.598	12207319069800.689
862.985	15620416599591.836	13650058977818.949	12453483380801.807
863.319	15948720636848.338	13924327891846.367	12767594172484.730
863.654	16246895797268.750	14196626546561.715	13018017950686.645
863.989	16573822770465.279	14505420569939.359	13302384895181.502
864.323	16951245399990.719	14801779792827.178	13529311328707.766
864.658	17267247821826.930	15116936727787.229	13829867419638.748
864.992	17634629504163.043	15402968072517.947	14132371367784.850
865.327	17963892433003.125	15749099026437.357	14426564649426.107
865.661	18352468340321.664	16057893254400.365	14679347399124.604
865.995	18670218841768.691	16369101589614.543	14927038019206.004
866.330	19014523295466.465	16657013073806.135	15220122857365.326
866.664	19359136877643.613	16995872654850.869	15491425696802.172
866.998	19721336515096.793	17299732693094.908	15774537100941.059
867.332	20048850750569.980	17622287741560.324	16043041110356.742
867.666	20461036808047.812	17953442576719.934	16389471114780.687
868.000	20857539375149.969	18270327644218.180	16673124260953.566
868.334	21278763014260.230	18537164995033.824	16958151197820.650
868.668	21592518475084.609	18793650838083.262	17195620221839.617
869.001	21879168830697.668	19041614064194.617	17423569275289.186
869.335	22116465730048.211	19311524389414.184	17684795876562.062
869.669	22350651885653.309	19600931638249.992	17932225593054.336
870.003	22493868365815.926	19831878170142.934	18084513763349.754
870.336	22661817988522.898	19875179214182.547	18123999601261.000
870.670	22711190141003.340	19918480258222.160	18163485439172.242
871.003	22809934445964.223	20005082346301.387	18242457114994.730
871.336	22859306598444.664	20048383390341.000	18281942952905.977
871.670	22958050903405.547	20134985478420.227	18360914628728.465
872.003	23007423055885.992	20101063732372.719	18368033630547.637
872.336	22847318188790.895	20016092763086.707	18316795521729.426
872.669	22636159272968.590	19822871853777.934	18128819059801.074
873.003	22334948223702.059	19555566698393.930	17878334814408.309
873.336	22073764890585.676	19300179192784.273	17647434956835.898
873.669	21665330551709.504	18931349984464.320	17366550759004.684
874.002	21275324318109.687	18620645052462.262	17069636729478.217
874.334	20794443029796.508	18204777373523.906	16683126951408.381
874.667	20317354651770.031	17800074326866.148	16284497945766.932
875.000	19764152131723.734	17324717521454.143	15825033232810.545
875.333	19209044717387.973	16877447524104.703	15356496488931.076
875.665	18565427413003.828	16336769313843.791	14846123822890.057
875.998	17932736422298.105	15736177216826.025	14353862133121.637
876.331	17237724127683.857	15079592152556.246	13832749815848.084
876.663	16526114231961.711	14460305454487.826	13274501573149.232
876.995	15830246338028.273	13897338180689.012	12719559986373.625
877.328	15098334311787.154	13300686193124.666	12122726330971.967
877.660	14420938964838.346	12697223354331.605	11572004988262.768
877.992	13715579765628.494	12066364899115.648	11029128880363.805
878.325	13019998291199.430	11436112057641.375	10479264079303.268
878.657	12338903938644.279	10814953505819.174	9868235473264.707
878.989	11661898201171.559	10243177195577.896	9318887659409.570
879.321	11059981019307.635	9703504010899.307	8806168399286.268
879.653	10406978794034.412	9154529823204.201	8329356484461.957
879.985	9857972091799.326	8593592138471.935	7848044759676.424
880.317	9260186636921.256	8071526756334.965	7385860902696.705
880.648	8738991473146.492	7580238827701.423	6965775643264.224
880.980	8206879453304.962	7180625967099.837	6560307962785.067
881.312	7781874699831.257	6778402740669.187	6199785685141.290
881.644	7330925886408.308	6418376226645.521	5847930212076.694
881.975	6921698165505.007	6072432345895.970	5514602500701.457
882.307	6535378276561.743	5750172698548.677	5224240170007.022
882.638	6177716170079.009	5452544044433.572	4967841406886.772
882.969	5874265934044.329	5150285480247.612	4720301656291.676
883.301	5539413277305.887	4869008576854.757	4429017873134.593
883.632	5295513236474.897	4609105831268.682	4188196705770.728
883.963	5024834073861.636	4364725018041.499	3978261221528.482
884.295	4769567474999.463	4148291751463.931	3798025655876.628
884.626	4517075541743.391	3961480849445.713	3586277647635.079
884.957	4269530812719.209	3746841080428.943	3387371417419.719
885.288	4047062725059.274	3544642760926.208	3209746770135.617
885.619	3841832669635.016	3352698403048.121	3077653662744.067
885.950	3628241336171.792	3175619380957.251	2940439534161.731
886.280	3469029177296.231	3018704128464.416	2806254541461.432
886.611	3299045724837.734	2853781568480.727	2636891869366.431
886.942	3137663040924.947	2726323191132.889	2503360788732.338
887.273	2966840379318.628	2597928426591.102	2385345052650.321
887.603	2818198020788.684	2491531846280.201	2291425936802.077
887.934	2663713546053.444	2363046552716.495	2163106259050.114
888.264	2531483457637.541	2246304049661.505	2032110195615.112
888.595	2403262730819.509	2121636421213.097	1920943056760.779
888.925	2294454267153.413	1997542286604.811	1811692927770.060
889.255	2159313133646.243	1891453770771.188	1718141815947.046
889.586	2023596808398.677	1785449850984.036	1621152851730.072
889.916	1910551586506.770	1697155801691.175	1544101082787.243
890.246	1796549644520.112	1595186509793.888	1450409727699.764
890.576	1691298841318.957	1491223022097.378	1377998830324.062
890.906	1581073624032.998	1410530137279.950	1314939472511.468
891.236	1485768022072.558	1317136347636.376	1242793820055.355
891.566	1404484700704.953	1249759166794.806	1163293835360.974
891.896	1340199739823.469	1170078570339.987	1075462361492.893
892.226	1253464116312.016	1104613648860.851	1009824467054.255
892.555	1169540290649.554	1028304414557.905	940764518332.292
892.885	1090729076482.759	967554469584.207	876191797571.894
893.215	1030596505708.520	900140156499.747	813411244567.453
893.544	967913141319.902	836700773455.241	772325684252.587
893.874	902157848796.711	778089052374.394	727223147643.626
894.203	837720164943.786	730012495495.885	666428345183.849
894.533	784256770036.275	674643350082.621	601241561464.604
894.862	720017761910.717	628220108717.838	549254522897.233
895.191	662338350848.918	567916814660.894	515353284386.252
895.520	603156079073.128	524088124835.042	486952789711.609
895.850	546801767389.790	478414116134.851	457012221482.754
896.179	502517503841.466	445567670740.916	419215223503.638
896.508	452109591289.572	397085380017.706	375897080406.943
896.837	422448145316.606	349217807084.711	345385309852.218
897.166	380644376968.863	318926019084.455	308975298323.045
897.495	345009345354.084	309358155398.651	278053129535.620
897.823	308809886072.869	287431555901.753	241443851865.545
898.152	271900389956.295	253970270282.817	221326449710.005
898.481	251223923835.622	222625624801.224	195760121069.061
898.810	226752422624.504	0.000	0.000
899.138	0.000	0.000	0.000
899.467	0.000	0.000	0.000
899.795	0.000	0.000	0.000
900.124	0.000	0.000	0.000
900.452	0.000	0.000	0.000
900.780	0.000	0.000	0.000
901.108	0.000	0.000	0.000
901.437	0.000	0.000	0.000
901.765	0.000	0.000	0.000
902.093	0.000	0.000	0.000
902.421	0.000	0.000	0.000
902.749	0.000	0.000	0.000
903.077	0.000	0.000	0.000
903.405	0.000	0.000	0.000
903.732	0.000	0.000	0.000
904.060	0.000	0.000	0.000
904.388	0.000	0.000	0.000
904.715	0.000	0.000	0.000
905.043	0.000	0.000	0.000
905.370	0.000	0.000	0.000
905.698	0.000	0.000	0.000
906.025	0.000	0.000	0.000
906.353	0.000	0.000	0.000
906.680	0.000	0.000	0.000
907.007	0.000	0.000	0.000
907.334	0.000	0.000	0.000
907.661	0.000	0.000	0.000
907.988	0.000	0.000	0.000
908.315	0.000	0.000	0.000
908.642	0.000	0.000	0.000
908.969	0.000	0.000	0.000
909.296	0.000	0.000	0.000
909.623	0.000	0.000	0.000
909.949	0.000	0.000	0.000
910.276	0.000	0.000	0.000
910.602	0.000	0.000	0.000
910.929	0.000	0.000	0.000
911.255	0.000	0.000	0.000
911.582	0.000	0.000	0.000
911.908	0.000	0.000	0.000
912.234	0.000	0.000	0.000
912.561	0.000	0.000	0.000
912.887	0.000	0.000	0.000
913.213	0.000	0.000	0.000
913.539	0.000	0.000	0.000
913.865	0.000	0.000	0.000
914.191	0.000	0.000	0.000
914.517	0.000	0.000	0.000
914.842	0.000	0.000	0.000
915.168	0.000	0.000	0.000
915.494	0.000	0.000	0.000
915.819	0.000	0.000	0.000
916.145	0.000	0.000	0.000
916.471	0.000	0.000	0.000
916.796	0.000	0.000	0.000
917.121	0.000	0.000	0.000
917.447	0.000	0.000	0.000
917.772	0.000	0.000	0.000
918.097	0.000	0.000	0.000
918.422	0.000	0.000	0.000
918.748	0.000	0.000	0.000
919.073	0.000	0.000	0.000
919.398	0.000	0.000	0.000
919.722	0.000	0.000	0.000
920.047	0.000	0.000	0.000
920.372	0.000	0.000	0.000
920.697	0.000	0.000	0.000
921.022	0.000	0.000	0.000
921.346	0.000	0.000	0.000
921.671	0.000	0.000	0.000
921.995	0.000	0.000	0.000
922.320	0.000	0.000	0.000
922.644	0.000	0.000	0.000
922.969	0.000	0.000	0.000
923.293	0.000	0.000	0.000
923.617	0.000	0.000	0.000
923.941	0.000	0.000	0.000
924.265	0.000	0.000	0.000
924.589	0.000	0.000	0.000
924.913	0.000	0.000	0.000
925.237	0.000	0.000	0.000
925.561	0.000	0.000	0.000
925.885	0.000	0.000	0.000
926.209	0.000	0.000	0.000
926.532	0.000	0.000	0.000
926.856	0.000	0.000	0.000
927.180	0.000	0.000	0.000
927.503	0.000	0.000	0.000
927.827	0.000	0.000	0.000
928.150	0.000	0.000	0.000
928.473	0.000	0.000	0.000
928.797	0.000	0.000	0.000
929.120	0.000	0.000	0.000
929.443	0.000	0.000	0.000
929.766	0.000	0.000	0.000
930.089	0.000	0.000	0.000
930.412	0.000	0.000	0.000
930.735	0.000	0.000	0.000
931.058	0.000	0.000	0.000
931.381	0.000	0.000	0.000
931.704	0.000	0.000	0.000
932.026	0.000	0.000	0.000
932.349	0.000	0.000	0.000
932.671	0.000	0.000	0.000
932.994	0.000	0.000	0.000
933.316	0.000	0.000	0.000
933.639	0.000	0.000	0.000
933.961	0.000	0.000	0.000
934.283	0.000	0.000	0.000
934.606	0.000	0.000	0.000
934.928	0.000	0.000	0.000
935.250	0.000	0.000	0.000
935.572	0.000	0.000	0.000
935.894	0.000	0.000	0.000
936.216	0.000	0.000	0.000
936.538	0.000	0.000	0.000
936.859	0.000	0.000	0.000
937.181	0.000	0.000	0.000
937.503	0.000	0.000	0.000
937.825	0.000	0.000	0.000
938.146	0.000	0.000	0.000
938.468	0.000	0.000	0.000
938.789	0.000	0.000	0.000
939.110	0.000	0.000	0.000
939.432	0.000	0.000	0.000
939.753	0.000	0.000	0.000
940.074	0.000	0.000	0.000
940.395	0.000	0.000	0.000
940.716	0.000	0.000	0.000
941.038	0.000	0.000	0.000
941.358	0.000	0.000	0.000
941.679	0.000	0.000	0.000
942.000	0.000	0.000	0.000
942.321	0.000	0.000	0.000
942.642	0.000	0.000	0.000
942.962	0.000	0.000	0.000
943.283	0.000	0.000	0.000
943.604	0.000	0.000	0.000
943.924	0.000	0.000	0.000
944.245	0.000	0.000	0.000
944.565	0.000	0.000	0.000
944.885	0.000	0.000	0.000
945.205	0.000	0.000	0.000
945.526	0.000	0.000	0.000
945.846	0.000	0.000	0.000
946.166	0.000	0.000	0.000
946.486	0.000	0.000	0.000
946.806	0.000	0.000	0.000
947.126	0.000	0.000	0.000
947.446	0.000	0.000	0.000
947.765	0.000	0.000	0.000
948.085	0.000	0.000	0.000
948.405	0.000	0.000	0.000
948.724	0.000	0.000	0.000
949.044	0.000	0.000	0.000
949.363	0.000	0.000	0.000
949.683	0.000	0.000	0.000
950.002	0.000	0.000	0.000
950.321	0.000	0.000	0.000
950.641	0.000	0.000	0.000
950.960	0.000	0.000	0.000
951.279	0.000	0.000	0.000
951.598	0.000	0.000	0.000
951.917	0.000	0.000	0.000
952.236	0.000	0.000	0.000
952.555	0.000	0.000	0.000
952.874	0.000	0.000	0.000
953.192	0.000	0.000	0.000
953.511	0.000	0.000	0.000
953.830	0.000	0.000	0.000
954.148	0.000	0.000	0.000
954.467	0.000	0.000	0.000
954.785	0.000	0.000	0.000
955.104	0.000	0.000	0.000
955.422	0.000	0.000	0.000
955.740	0.000	0.000	0.000
956.059	0.000	0.000	0.000
956.377	0.000	0.000	0.000
956.695	0.000	0.000	0.000
957.013	0.000	0.000	0.000
957.331	0.000	0.000	0.000
957.649	0.000	0.000	0.000
957.967	0.000	0.000	0.000
958.284	0.000	0.000	0.000
958.602	0.000	0.000	0.000
958.920	0.000	0.000	0.000
959.238	0.000	0.000	0.000
959.555	0.000	0.000	0.000
959.873	0.000	0.000	0.000
960.190	0.000	0.000	0.000
960.507	0.000	0.000	0.000
960.825	0.000	0.000	0.000
961.142	0.000	0.000	0.000
961.459	0.000	0.000	0.000
961.776	0.000	0.000	0.000
962.093	0.000	0.000	0.000
962.410	0.000	0.000	0.000
962.727	0.000	0.000	0.000
963.044	0.000	0.000	0.000
963.361	0.000	0.000	0.000
963.678	0.000	0.000	0.000
963.995	0.000	0.000	0.000
964.311	0.000	0.000	0.000
964.628	0.000	0.000	0.000
964.944	0.000	0.000	0.000
965.261	0.000	0.000	0.000
965.577	0.000	0.000	0.000
965.894	0.000	0.000	0.000
966.210	0.000	0.000	0.000
966.526	0.000	0.000	0.000
966.842	0.000	0.000	0.000
967.158	0.000	0.000	0.000
967.474	0.000	0.000	0.000
967.790	0.000	0.000	0.000
968.106	0.000	0.000	0.000
968.422	0.000	0.000	0.000
968.738	0.000	0.000	0.000
969.054	0.000	0.000	0.000
969.369	0.000	0.000	0.000
969.685	0.000	0.000	0.000
970.001	0.000	0.000	0.000
970.316	0.000	0.000	0.000
970.632	0.000	0.000	0.000
970.947	0.000	0.000	0.000
971.262	0.000	0.000	0.000
971.577	0.000	0.000	0.000
971.893	0.000	0.000	0.000
972.208	0.000	0.000	0.000
972.523	0.000	0.000	0.000
972.838	0.000	0.000	0.000
973.153	0.000	0.000	0.000
973.468	0.000	0.000	0.000
973.783	0.000	0.000	0.000
974.097	0.000	0.000	0.000
974.412	0.000	0.000	0.000
974.727	0.000	0.000	0.000
975.041	0.000	0.000	0.000
975.356	0.000	0.000	0.000
975.670	0.000	0.000	0.000
975.985	0.000	0.000	0.000
976.299	0.000	0.000	0.000
976.613	0.000	0.000	0.000
976.928	0.000	0.000	0.000
977.242	0.000	0.000	0.000
977.556	0.000	0.000	0.000
977.870	0.000	0.000	0.000
978.184	0.000	0.000	0.000
978.498	0.000	0.000	0.000
978.812	0.000	0.000	0.000
979.125	0.000	0.000	0.000
979.439	0.000	0.000	0.000
979.753	0.000	0.000	0.000
980.066	0.000	0.000	0.000
980.380	0.000	0.000	0.000
980.693	0.000	0.000	0.000
981.007	0.000	0.000	0.000
981.320	0.000	0.000	0.000
981.634	0.000	0.000	0.000
981.947	0.000	0.000	0.000
982.260	0.000	0.000	0.000
982.573	0.000	0.000	0.000
982.886	0.000	0.000	0.000
983.199	0.000	0.000	0.000
983.512	0.000	0.000	0.000
983.825	0.000	0.000	0.000
984.138	0.000	0.000	0.000
984.451	0.000	0.000	0.000
984.763	0.000	0.000	0.000
985.076	0.000	0.000	0.000
985.388	0.000	0.000	0.000
985.701	0.000	0.000	0.000
986.013	0.000	0.000	0.000
986.326	0.000	0.000	0.000
986.638	0.000	0.000	0.000
986.950	0.000	0.000	0.000
987.263	0.000	0.000	0.000
987.575	0.000	0.000	0.000
987.887	0.000	0.000	0.000
988.199	0.000	0.000	0.000
988.511	0.000	0.000	0.000
988.823	0.000	0.000	0.000
989.135	0.000	0.000	0.000
989.446	0.000	0.000	0.000
989.758	0.000	0.000	0.000
990.070	0.000	0.000	0.000
990.381	0.000	0.000	0.000
990.693	0.000	0.000	0.000
991.004	0.000	0.000	0.000
991.316	0.000	0.000	0.000
991.627	0.000	0.000	0.000
991.938	0.000	0.000	0.000
992.249	0.000	0.000	0.000
992.561	0.000	0.000	0.000
992.872	0.000	0.000	0.000
993.183	0.000	0.000	0.000
993.494	0.000	0.000	0.000
993.805	0.000	0.000	0.000
994.115	0.000	0.000	0.000
994.426	0.000	0.000	0.000
994.737	0.000	0.000	0.000
995.048	0.000	0.000	0.000
995.358	0.000	0.000	0.000
995.669	0.000	0.000	0.000
995.979	0.000	0.000	0.000
996.290	0.000	0.000	0.000
996.600	0.000	0.000	0.000
996.910	0.000	0.000	0.000
997.220	0.000	0.000	0.000
997.531	0.000	0.000	0.000
997.841	0.000	0.000	0.000
998.151	0.000	0.000	0.000
998.461	0.000	0.000	0.000
998.771	0.000	0.000	0.000
999.081	0.000	0.000	0.000
999.390	0.000	0.000	0.000
999.700	0.000	0.000	0.000
