8/27/2025	2:06:46 PM	2:06:48 PM	2:06:50 PM
LuQY (%)	0.489000	0.478000	0.483000
QFLS LuQY (eV)	1.007000	1.000000	0.987000
QFLS HET (eV)	1.009000	1.002000	0.989000
QFLS confidence	1.000000	1.000000	1.000000
Laser intensity (mW/cm²)	70.346000	52.953000	33.175000
Bias voltage (V)	0.000000	0.000000	0.000000
SMU current density (mA/cm2)	0.000000	0.000000	0.000000
Integration Time (ms)	162.000000	162.000000	162.000000
Delay time (s)	0.000000	0.000000	0.000000
Bandgap (eV)	1.423000	1.423000	1.423000
Jsc (mA/cm2)	26.806000	26.806000	26.806000
EQE @ laser wavelength	0.900000	0.900000	0.900000
Laser spot size (cm²)	0.400000	0.400000	0.400000
Subcell area (cm²)	1.000000	1.000000	1.000000
Subcell	--	--	--
----------------------------  			
Wavelength (nm)	Luminescence Flux Density (photons/s/cm²/nm)		
			
550.033	0.000	0.000	0.000
550.412	0.000	0.000	0.000
550.791	0.000	0.000	0.000
551.169	0.000	0.000	0.000
551.548	0.000	0.000	0.000
551.927	0.000	0.000	0.000
552.305	0.000	0.000	0.000
552.684	0.000	0.000	0.000
553.062	0.000	0.000	0.000
553.441	0.000	0.000	0.000
553.819	0.000	0.000	0.000
554.197	0.000	0.000	0.000
554.576	0.000	0.000	0.000
554.954	0.000	0.000	0.000
555.332	0.000	0.000	0.000
555.710	0.000	0.000	0.000
556.088	0.000	0.000	0.000
556.466	0.000	0.000	0.000
556.844	0.000	0.000	0.000
557.222	0.000	0.000	0.000
557.600	0.000	0.000	0.000
557.978	0.000	0.000	0.000
558.356	0.000	0.000	0.000
558.734	0.000	0.000	0.000
559.112	0.000	0.000	0.000
559.489	0.000	0.000	0.000
559.867	0.000	0.000	0.000
560.245	0.000	0.000	0.000
560.622	0.000	0.000	0.000
561.000	0.000	0.000	0.000
561.377	0.000	0.000	0.000
561.755	0.000	0.000	0.000
562.132	0.000	0.000	0.000
562.510	0.000	0.000	0.000
562.887	0.000	0.000	0.000
563.264	0.000	0.000	0.000
563.641	0.000	0.000	0.000
564.018	0.000	0.000	0.000
564.396	0.000	0.000	0.000
564.773	0.000	0.000	0.000
565.150	0.000	0.000	0.000
565.527	0.000	0.000	0.000
565.904	0.000	0.000	0.000
566.281	0.000	0.000	0.000
566.657	0.000	0.000	0.000
567.034	0.000	0.000	0.000
567.411	0.000	0.000	0.000
567.788	0.000	0.000	0.000
568.165	0.000	0.000	0.000
568.541	0.000	0.000	0.000
568.918	0.000	0.000	0.000
569.294	0.000	0.000	0.000
569.671	0.000	0.000	0.000
570.047	0.000	0.000	0.000
570.424	0.000	0.000	0.000
570.800	0.000	0.000	0.000
571.176	0.000	0.000	0.000
571.553	0.000	0.000	0.000
571.929	0.000	0.000	0.000
572.305	0.000	0.000	0.000
572.681	0.000	0.000	0.000
573.057	0.000	0.000	0.000
573.433	0.000	0.000	0.000
573.809	0.000	0.000	0.000
574.185	0.000	0.000	0.000
574.561	0.000	0.000	0.000
574.937	0.000	0.000	0.000
575.313	0.000	0.000	0.000
575.689	0.000	0.000	0.000
576.064	0.000	0.000	0.000
576.440	0.000	0.000	0.000
576.816	0.000	0.000	0.000
577.191	0.000	0.000	0.000
577.567	0.000	0.000	0.000
577.942	0.000	0.000	0.000
578.318	0.000	0.000	0.000
578.693	0.000	0.000	0.000
579.069	0.000	0.000	0.000
579.444	0.000	0.000	0.000
579.819	0.000	0.000	0.000
580.195	0.000	0.000	0.000
580.570	0.000	0.000	0.000
580.945	0.000	0.000	0.000
581.320	0.000	0.000	0.000
581.695	0.000	0.000	0.000
582.070	0.000	0.000	0.000
582.445	0.000	0.000	0.000
582.820	0.000	0.000	0.000
583.195	0.000	0.000	0.000
583.570	0.000	0.000	0.000
583.944	0.000	0.000	0.000
584.319	0.000	0.000	0.000
584.694	0.000	0.000	0.000
585.069	0.000	0.000	0.000
585.443	0.000	0.000	0.000
585.818	0.000	0.000	0.000
586.192	0.000	0.000	0.000
586.567	0.000	0.000	0.000
586.941	0.000	0.000	0.000
587.315	0.000	0.000	0.000
587.690	0.000	0.000	0.000
588.064	0.000	0.000	0.000
588.438	0.000	0.000	0.000
588.812	0.000	0.000	0.000
589.187	0.000	0.000	0.000
589.561	0.000	0.000	0.000
589.935	0.000	0.000	0.000
590.309	0.000	0.000	0.000
590.683	0.000	0.000	0.000
591.057	0.000	0.000	0.000
591.430	0.000	0.000	0.000
591.804	0.000	0.000	0.000
592.178	0.000	0.000	0.000
592.552	0.000	0.000	0.000
592.925	0.000	0.000	0.000
593.299	0.000	0.000	0.000
593.673	0.000	0.000	0.000
594.046	0.000	0.000	0.000
594.420	0.000	0.000	0.000
594.793	0.000	0.000	0.000
595.167	0.000	0.000	0.000
595.540	0.000	0.000	0.000
595.913	0.000	0.000	0.000
596.287	0.000	0.000	0.000
596.660	0.000	0.000	0.000
597.033	0.000	0.000	0.000
597.406	0.000	0.000	0.000
597.779	0.000	0.000	0.000
598.152	0.000	0.000	0.000
598.525	0.000	0.000	0.000
598.898	0.000	0.000	0.000
599.271	0.000	0.000	0.000
599.644	0.000	0.000	0.000
600.017	0.000	0.000	0.000
600.389	0.000	0.000	0.000
600.762	0.000	0.000	0.000
601.135	0.000	0.000	0.000
601.508	0.000	0.000	0.000
601.880	0.000	0.000	0.000
602.253	0.000	0.000	0.000
602.625	0.000	0.000	0.000
602.998	0.000	0.000	0.000
603.370	0.000	0.000	0.000
603.742	0.000	0.000	0.000
604.115	0.000	0.000	0.000
604.487	0.000	0.000	0.000
604.859	0.000	0.000	0.000
605.231	0.000	0.000	0.000
605.603	0.000	0.000	0.000
605.975	0.000	0.000	0.000
606.347	0.000	0.000	0.000
606.719	0.000	0.000	0.000
607.091	0.000	0.000	0.000
607.463	0.000	0.000	0.000
607.835	0.000	0.000	0.000
608.207	0.000	0.000	0.000
608.579	0.000	0.000	0.000
608.950	0.000	0.000	0.000
609.322	0.000	0.000	0.000
609.694	0.000	0.000	0.000
610.065	0.000	0.000	0.000
610.437	0.000	0.000	0.000
610.808	0.000	0.000	0.000
611.179	0.000	0.000	0.000
611.551	0.000	0.000	0.000
611.922	0.000	0.000	0.000
612.293	0.000	0.000	0.000
612.665	0.000	0.000	0.000
613.036	0.000	0.000	0.000
613.407	0.000	0.000	0.000
613.778	0.000	0.000	0.000
614.149	0.000	0.000	0.000
614.520	0.000	0.000	0.000
614.891	0.000	0.000	0.000
615.262	0.000	0.000	0.000
615.633	0.000	0.000	0.000
616.004	0.000	0.000	0.000
616.374	0.000	0.000	0.000
616.745	0.000	0.000	0.000
617.116	0.000	0.000	0.000
617.486	0.000	0.000	0.000
617.857	0.000	0.000	0.000
618.228	0.000	0.000	0.000
618.598	0.000	0.000	0.000
618.968	0.000	0.000	0.000
619.339	0.000	0.000	0.000
619.709	0.000	0.000	0.000
620.079	0.000	0.000	0.000
620.450	0.000	0.000	0.000
620.820	0.000	0.000	0.000
621.190	0.000	0.000	0.000
621.560	0.000	0.000	0.000
621.930	0.000	0.000	0.000
622.300	0.000	0.000	0.000
622.670	0.000	0.000	0.000
623.040	0.000	0.000	0.000
623.410	0.000	0.000	0.000
623.780	0.000	0.000	0.000
624.150	0.000	0.000	0.000
624.519	0.000	0.000	0.000
624.889	0.000	0.000	0.000
625.259	0.000	0.000	0.000
625.628	0.000	0.000	0.000
625.998	0.000	0.000	0.000
626.367	0.000	0.000	0.000
626.737	0.000	0.000	0.000
627.106	0.000	0.000	0.000
627.475	0.000	0.000	0.000
627.845	0.000	0.000	0.000
628.214	0.000	0.000	0.000
628.583	0.000	0.000	0.000
628.952	0.000	0.000	0.000
629.322	0.000	0.000	0.000
629.691	0.000	0.000	0.000
630.060	0.000	0.000	0.000
630.429	0.000	0.000	0.000
630.798	0.000	0.000	0.000
631.166	0.000	0.000	0.000
631.535	0.000	0.000	0.000
631.904	0.000	0.000	0.000
632.273	0.000	0.000	0.000
632.641	0.000	0.000	0.000
633.010	0.000	0.000	0.000
633.379	0.000	0.000	0.000
633.747	0.000	0.000	0.000
634.116	0.000	0.000	0.000
634.484	0.000	0.000	0.000
634.853	0.000	0.000	0.000
635.221	0.000	0.000	0.000
635.589	0.000	0.000	0.000
635.958	0.000	0.000	0.000
636.326	0.000	0.000	0.000
636.694	0.000	0.000	0.000
637.062	0.000	0.000	0.000
637.430	0.000	0.000	0.000
637.798	0.000	0.000	0.000
638.166	0.000	0.000	0.000
638.534	0.000	0.000	0.000
638.902	0.000	0.000	0.000
639.270	0.000	0.000	0.000
639.638	0.000	0.000	0.000
640.005	0.000	0.000	0.000
640.373	0.000	0.000	0.000
640.741	0.000	0.000	0.000
641.108	0.000	0.000	0.000
641.476	0.000	0.000	0.000
641.843	0.000	0.000	0.000
642.211	0.000	0.000	0.000
642.578	0.000	0.000	0.000
642.946	0.000	0.000	0.000
643.313	0.000	0.000	0.000
643.680	0.000	0.000	0.000
644.047	0.000	0.000	0.000
644.415	0.000	0.000	0.000
644.782	0.000	0.000	0.000
645.149	0.000	0.000	0.000
645.516	0.000	0.000	0.000
645.883	0.000	0.000	0.000
646.250	0.000	0.000	0.000
646.617	0.000	0.000	0.000
646.983	0.000	0.000	0.000
647.350	0.000	0.000	0.000
647.717	0.000	0.000	0.000
648.084	0.000	0.000	0.000
648.450	0.000	0.000	0.000
648.817	0.000	0.000	0.000
649.183	0.000	0.000	0.000
649.550	0.000	0.000	0.000
649.916	0.000	0.000	0.000
650.283	0.000	0.000	0.000
650.649	0.000	0.000	0.000
651.015	0.000	0.000	0.000
651.382	0.000	0.000	0.000
651.748	0.000	0.000	0.000
652.114	0.000	0.000	0.000
652.480	0.000	0.000	0.000
652.846	0.000	0.000	0.000
653.212	0.000	0.000	0.000
653.578	0.000	0.000	0.000
653.944	0.000	0.000	0.000
654.310	0.000	0.000	0.000
654.676	0.000	0.000	0.000
655.042	0.000	0.000	0.000
655.407	0.000	0.000	0.000
655.773	0.000	0.000	0.000
656.139	0.000	0.000	0.000
656.504	0.000	0.000	0.000
656.870	0.000	0.000	0.000
657.235	0.000	0.000	0.000
657.601	0.000	0.000	0.000
657.966	0.000	0.000	0.000
658.331	0.000	0.000	0.000
658.697	0.000	0.000	0.000
659.062	0.000	0.000	0.000
659.427	0.000	0.000	0.000
659.792	0.000	0.000	0.000
660.157	0.000	0.000	0.000
660.522	0.000	0.000	0.000
660.887	0.000	0.000	0.000
661.252	0.000	0.000	0.000
661.617	0.000	0.000	0.000
661.982	0.000	0.000	0.000
662.347	0.000	0.000	0.000
662.712	0.000	0.000	0.000
663.076	0.000	0.000	0.000
663.441	0.000	0.000	0.000
663.806	0.000	0.000	0.000
664.170	0.000	0.000	0.000
664.535	0.000	0.000	0.000
664.899	0.000	0.000	0.000
665.264	0.000	0.000	0.000
665.628	0.000	0.000	0.000
665.992	0.000	0.000	0.000
666.357	0.000	0.000	0.000
666.721	0.000	0.000	0.000
667.085	0.000	0.000	0.000
667.449	0.000	0.000	0.000
667.813	0.000	0.000	0.000
668.177	0.000	0.000	0.000
668.541	0.000	0.000	0.000
668.905	0.000	0.000	0.000
669.269	0.000	0.000	0.000
669.633	0.000	0.000	0.000
669.997	0.000	0.000	0.000
670.361	0.000	0.000	0.000
670.724	0.000	0.000	0.000
671.088	0.000	0.000	0.000
671.451	0.000	0.000	0.000
671.815	0.000	0.000	0.000
672.179	0.000	0.000	0.000
672.542	0.000	0.000	0.000
672.905	0.000	0.000	0.000
673.269	0.000	0.000	0.000
673.632	0.000	0.000	0.000
673.995	0.000	0.000	0.000
674.358	0.000	0.000	0.000
674.722	0.000	0.000	0.000
675.085	0.000	0.000	0.000
675.448	0.000	0.000	0.000
675.811	0.000	0.000	0.000
676.174	0.000	0.000	0.000
676.537	0.000	0.000	0.000
676.900	0.000	0.000	0.000
677.262	0.000	0.000	0.000
677.625	0.000	0.000	0.000
677.988	0.000	0.000	0.000
678.350	0.000	0.000	0.000
678.713	0.000	0.000	0.000
679.076	0.000	0.000	0.000
679.438	0.000	0.000	0.000
679.801	0.000	0.000	0.000
680.163	0.000	0.000	0.000
680.525	0.000	0.000	0.000
680.888	0.000	0.000	0.000
681.250	0.000	0.000	0.000
681.612	0.000	0.000	0.000
681.974	0.000	0.000	0.000
682.337	0.000	0.000	0.000
682.699	0.000	0.000	0.000
683.061	0.000	0.000	0.000
683.423	0.000	0.000	0.000
683.785	0.000	0.000	0.000
684.146	0.000	0.000	0.000
684.508	0.000	0.000	0.000
684.870	0.000	0.000	0.000
685.232	0.000	0.000	0.000
685.593	0.000	0.000	0.000
685.955	0.000	0.000	0.000
686.317	0.000	0.000	0.000
686.678	0.000	0.000	0.000
687.040	0.000	0.000	0.000
687.401	0.000	0.000	0.000
687.762	0.000	0.000	0.000
688.124	0.000	0.000	0.000
688.485	0.000	0.000	0.000
688.846	0.000	0.000	0.000
689.208	0.000	0.000	0.000
689.569	0.000	0.000	0.000
689.930	0.000	0.000	0.000
690.291	0.000	0.000	0.000
690.652	0.000	0.000	0.000
691.013	0.000	0.000	0.000
691.374	0.000	0.000	0.000
691.734	0.000	0.000	0.000
692.095	0.000	0.000	0.000
692.456	0.000	0.000	0.000
692.817	0.000	0.000	0.000
693.177	0.000	0.000	0.000
693.538	0.000	0.000	0.000
693.898	0.000	0.000	0.000
694.259	0.000	0.000	0.000
694.619	0.000	0.000	0.000
694.980	0.000	0.000	0.000
695.340	0.000	0.000	0.000
695.700	0.000	0.000	0.000
696.061	0.000	0.000	0.000
696.421	0.000	0.000	0.000
696.781	0.000	0.000	0.000
697.141	0.000	0.000	0.000
697.501	0.000	0.000	0.000
697.861	0.000	0.000	0.000
698.221	0.000	0.000	0.000
698.581	0.000	0.000	0.000
698.941	0.000	0.000	0.000
699.301	0.000	0.000	0.000
699.660	0.000	0.000	0.000
700.020	0.000	0.000	0.000
700.380	0.000	0.000	0.000
700.739	0.000	0.000	0.000
701.099	0.000	0.000	0.000
701.458	0.000	0.000	0.000
701.818	0.000	0.000	0.000
702.177	0.000	0.000	0.000
702.536	0.000	0.000	0.000
702.896	0.000	0.000	0.000
703.255	0.000	0.000	0.000
703.614	0.000	0.000	0.000
703.973	0.000	0.000	0.000
704.332	0.000	0.000	0.000
704.692	0.000	0.000	0.000
705.051	0.000	0.000	0.000
705.409	0.000	0.000	0.000
705.768	0.000	0.000	0.000
706.127	0.000	0.000	0.000
706.486	0.000	0.000	0.000
706.845	0.000	0.000	0.000
707.203	0.000	0.000	0.000
707.562	0.000	0.000	0.000
707.921	0.000	0.000	0.000
708.279	0.000	0.000	0.000
708.638	0.000	0.000	0.000
708.996	0.000	0.000	0.000
709.355	0.000	0.000	0.000
709.713	0.000	0.000	0.000
710.071	0.000	0.000	0.000
710.429	0.000	0.000	0.000
710.788	0.000	0.000	0.000
711.146	0.000	0.000	0.000
711.504	0.000	0.000	0.000
711.862	0.000	0.000	0.000
712.220	0.000	0.000	0.000
712.578	0.000	0.000	0.000
712.936	0.000	0.000	0.000
713.294	0.000	0.000	0.000
713.651	0.000	0.000	0.000
714.009	0.000	0.000	0.000
714.367	0.000	0.000	0.000
714.724	0.000	0.000	0.000
715.082	0.000	0.000	0.000
715.440	0.000	0.000	0.000
715.797	0.000	0.000	0.000
716.154	0.000	0.000	0.000
716.512	0.000	0.000	0.000
716.869	0.000	0.000	0.000
717.226	0.000	0.000	0.000
717.584	0.000	0.000	0.000
717.941	0.000	0.000	0.000
718.298	0.000	0.000	0.000
718.655	0.000	0.000	0.000
719.012	0.000	0.000	0.000
719.369	0.000	0.000	0.000
719.726	0.000	0.000	0.000
720.083	0.000	0.000	0.000
720.440	0.000	0.000	0.000
720.797	0.000	0.000	0.000
721.153	0.000	0.000	0.000
721.510	0.000	0.000	0.000
721.867	0.000	0.000	0.000
722.223	0.000	0.000	0.000
722.580	0.000	0.000	0.000
722.936	0.000	0.000	0.000
723.293	0.000	0.000	0.000
723.649	0.000	0.000	0.000
724.005	0.000	0.000	0.000
724.362	0.000	0.000	0.000
724.718	0.000	0.000	0.000
725.074	0.000	0.000	0.000
725.430	0.000	0.000	0.000
725.786	0.000	0.000	0.000
726.142	0.000	0.000	0.000
726.498	0.000	0.000	0.000
726.854	0.000	0.000	0.000
727.210	0.000	0.000	0.000
727.566	0.000	0.000	0.000
727.921	0.000	0.000	0.000
728.277	0.000	0.000	0.000
728.633	0.000	0.000	0.000
728.988	0.000	0.000	0.000
729.344	0.000	0.000	0.000
729.700	0.000	0.000	0.000
730.055	0.000	0.000	0.000
730.410	0.000	0.000	0.000
730.766	0.000	0.000	0.000
731.121	0.000	0.000	0.000
731.476	0.000	0.000	0.000
731.831	0.000	0.000	0.000
732.187	0.000	0.000	0.000
732.542	0.000	0.000	0.000
732.897	0.000	0.000	0.000
733.252	0.000	0.000	0.000
733.607	0.000	0.000	0.000
733.962	0.000	0.000	0.000
734.316	0.000	0.000	0.000
734.671	0.000	0.000	0.000
735.026	0.000	0.000	0.000
735.381	0.000	0.000	0.000
735.735	0.000	0.000	0.000
736.090	0.000	0.000	0.000
736.444	0.000	0.000	0.000
736.799	0.000	0.000	0.000
737.153	0.000	0.000	0.000
737.508	0.000	0.000	0.000
737.862	0.000	0.000	0.000
738.216	0.000	0.000	0.000
738.571	0.000	0.000	0.000
738.925	0.000	0.000	0.000
739.279	0.000	0.000	0.000
739.633	0.000	0.000	0.000
739.987	0.000	0.000	0.000
740.341	0.000	0.000	0.000
740.695	0.000	0.000	0.000
741.049	0.000	0.000	0.000
741.403	0.000	0.000	0.000
741.756	0.000	0.000	0.000
742.110	0.000	0.000	0.000
742.464	0.000	0.000	0.000
742.817	0.000	0.000	0.000
743.171	0.000	0.000	0.000
743.524	0.000	0.000	0.000
743.878	0.000	0.000	0.000
744.231	0.000	0.000	0.000
744.585	0.000	0.000	0.000
744.938	0.000	0.000	0.000
745.291	0.000	0.000	0.000
745.644	0.000	0.000	0.000
745.998	0.000	0.000	0.000
746.351	0.000	0.000	0.000
746.704	0.000	0.000	0.000
747.057	0.000	0.000	0.000
747.410	0.000	0.000	0.000
747.762	0.000	0.000	0.000
748.115	0.000	0.000	0.000
748.468	0.000	0.000	0.000
748.821	0.000	0.000	0.000
749.174	0.000	0.000	0.000
749.526	0.000	0.000	0.000
749.879	0.000	0.000	0.000
750.231	0.000	0.000	0.000
750.584	0.000	0.000	0.000
750.936	0.000	0.000	0.000
751.289	0.000	0.000	0.000
751.641	0.000	0.000	0.000
751.993	0.000	0.000	0.000
752.345	0.000	0.000	0.000
752.697	0.000	0.000	0.000
753.050	0.000	0.000	0.000
753.402	0.000	0.000	0.000
753.754	0.000	0.000	0.000
754.106	0.000	0.000	0.000
754.458	0.000	0.000	0.000
754.809	0.000	0.000	0.000
755.161	0.000	0.000	0.000
755.513	0.000	0.000	0.000
755.865	0.000	0.000	0.000
756.216	0.000	0.000	0.000
756.568	0.000	0.000	0.000
756.919	0.000	0.000	0.000
757.271	0.000	0.000	0.000
757.622	0.000	0.000	0.000
757.974	0.000	0.000	0.000
758.325	0.000	0.000	0.000
758.676	0.000	0.000	0.000
759.028	0.000	0.000	0.000
759.379	0.000	0.000	0.000
759.730	0.000	0.000	0.000
760.081	0.000	0.000	0.000
760.432	0.000	0.000	0.000
760.783	0.000	0.000	0.000
761.134	0.000	0.000	0.000
761.485	0.000	0.000	0.000
761.835	0.000	0.000	0.000
762.186	0.000	0.000	0.000
762.537	0.000	0.000	0.000
762.888	0.000	0.000	0.000
763.238	0.000	0.000	0.000
763.589	0.000	0.000	0.000
763.939	0.000	0.000	0.000
764.290	0.000	0.000	0.000
764.640	0.000	0.000	0.000
764.990	0.000	0.000	0.000
765.341	0.000	0.000	0.000
765.691	0.000	0.000	0.000
766.041	0.000	0.000	0.000
766.391	0.000	0.000	0.000
766.741	0.000	0.000	0.000
767.091	0.000	0.000	0.000
767.441	0.000	0.000	0.000
767.791	0.000	0.000	0.000
768.141	0.000	0.000	0.000
768.491	0.000	0.000	0.000
768.841	0.000	0.000	0.000
769.190	0.000	0.000	0.000
769.540	0.000	0.000	0.000
769.890	0.000	0.000	0.000
770.239	0.000	0.000	0.000
770.589	0.000	0.000	0.000
770.938	0.000	0.000	0.000
771.288	0.000	0.000	0.000
771.637	0.000	0.000	0.000
771.986	0.000	0.000	0.000
772.335	0.000	0.000	0.000
772.685	0.000	0.000	0.000
773.034	0.000	0.000	0.000
773.383	0.000	0.000	0.000
773.732	0.000	0.000	0.000
774.081	0.000	0.000	0.000
774.430	0.000	0.000	0.000
774.779	0.000	0.000	0.000
775.127	0.000	0.000	0.000
775.476	0.000	0.000	0.000
775.825	0.000	0.000	0.000
776.174	0.000	0.000	0.000
776.522	0.000	0.000	0.000
776.871	0.000	0.000	0.000
777.219	0.000	0.000	0.000
777.568	0.000	0.000	0.000
777.916	0.000	0.000	0.000
778.264	0.000	0.000	0.000
778.613	0.000	0.000	0.000
778.961	0.000	0.000	0.000
779.309	0.000	0.000	0.000
779.657	0.000	0.000	0.000
780.005	0.000	0.000	0.000
780.353	0.000	0.000	0.000
780.701	0.000	0.000	0.000
781.049	0.000	0.000	0.000
781.397	0.000	0.000	0.000
781.745	0.000	0.000	0.000
782.093	0.000	0.000	0.000
782.440	0.000	0.000	0.000
782.788	0.000	0.000	0.000
783.136	0.000	0.000	0.000
783.483	0.000	0.000	0.000
783.831	0.000	0.000	0.000
784.178	0.000	0.000	0.000
784.525	0.000	0.000	0.000
784.873	0.000	0.000	0.000
785.220	0.000	0.000	0.000
785.567	0.000	0.000	0.000
785.914	0.000	0.000	0.000
786.262	0.000	0.000	0.000
786.609	0.000	0.000	0.000
786.956	0.000	0.000	0.000
787.303	0.000	0.000	0.000
787.649	0.000	0.000	0.000
787.996	0.000	0.000	0.000
788.343	0.000	0.000	0.000
788.690	0.000	0.000	0.000
789.037	0.000	0.000	0.000
789.383	0.000	0.000	0.000
789.730	0.000	0.000	0.000
790.076	0.000	0.000	0.000
790.423	0.000	0.000	0.000
790.769	0.000	0.000	0.000
791.116	0.000	0.000	0.000
791.462	0.000	0.000	0.000
791.808	0.000	0.000	0.000
792.154	0.000	0.000	0.000
792.501	0.000	0.000	0.000
792.847	0.000	0.000	0.000
793.193	0.000	0.000	0.000
793.539	0.000	0.000	0.000
793.885	0.000	0.000	0.000
794.231	0.000	0.000	0.000
794.576	0.000	0.000	0.000
794.922	0.000	0.000	0.000
795.268	0.000	0.000	0.000
795.614	0.000	0.000	0.000
795.959	0.000	0.000	0.000
796.305	0.000	0.000	0.000
796.650	0.000	0.000	0.000
796.996	0.000	0.000	0.000
797.341	0.000	0.000	0.000
797.686	0.000	0.000	0.000
798.032	0.000	0.000	0.000
798.377	0.000	0.000	0.000
798.722	0.000	0.000	0.000
799.067	0.000	0.000	0.000
799.412	0.000	0.000	0.000
799.757	0.000	0.000	0.000
800.102	0.000	0.000	0.000
800.447	0.000	0.000	0.000
800.792	0.000	0.000	0.000
801.137	154785768690.651	128983786112.507	118043094106.410
801.482	164273210187.764	132677370206.802	124959511381.022
801.827	168075429108.362	138290169565.781	125538897121.304
802.171	174014132946.250	144772047535.183	128073709735.036
802.516	183067035138.151	155092356033.950	135098761835.952
802.860	190562838153.046	160053346435.113	145672551596.093
803.205	198348334038.081	168563074495.500	157079208357.889
803.549	199181201039.736	174827682812.296	157731017315.706
803.894	201245262739.489	182142427783.352	167399516856.657
804.238	210696492627.834	189602019189.479	169427366947.642
804.582	226253007856.586	200196568814.767	173791562783.759
804.927	244192075171.769	207604604710.106	176660360998.130
805.271	249675474290.378	215266837915.579	182506899131.216
805.615	254723106591.614	215775232535.848	189914935026.555
805.959	260823842034.834	224417941080.410	200010199629.027
806.303	266960891379.502	231825976975.749	207236666017.127
806.647	277927689616.720	243882192256.399	215770432857.346
806.991	284391564074.418	252343331293.722	216024630167.481
807.335	298989752456.409	253868515154.527	217840325239.868
807.678	304727348885.152	260513959119.464	222488504625.178
808.022	311120997290.857	268421791501.020	227375927520.183
808.366	318440652310.560	280293470786.707	244345873983.772
808.709	339816958263.623	297663995385.703	260259750817.653
809.053	353254533896.808	306185384811.626	274243569362.757
809.397	369241243118.946	317110243049.989	277120448698.860
809.740	381295003375.272	318166312679.697	280070160423.217
810.083	388286912647.824	332659957942.591	287790393578.327
810.427	406094431576.355	343366319016.186	297040106886.807
810.770	407186917400.191	355019501137.106	311242422596.678
811.113	423865534310.758	363140312427.622	324097339123.818
811.457	424958020134.594	374429332607.263	337025088039.214
811.800	438541260544.291	387648411075.682	347148790006.763
812.143	455838952755.032	397480783490.208	358619891157.044
812.486	472080575336.064	404072114627.354	362297926763.959
812.829	486553299618.790	410502329244.367	365871911646.036
813.172	498202696910.545	427264314689.243	371130573746.389
813.515	503826543878.979	440009266585.239	388805521361.466
813.857	525993265371.440	456880807490.539	396364848130.724
814.200	541367548317.612	466959909849.549	403887656413.174
814.543	568537302502.771	481165601217.865	421745196462.290
814.886	577739961178.390	487446780948.843	439894884405.871
815.228	596863012992.709	503021040535.757	453504906428.622
815.571	609057732562.261	526934409541.515	456361327228.698
815.913	638207873034.824	552971783757.586	466834870162.307
816.256	658166197855.862	575127355347.913	492469415804.008
816.598	676623070717.887	587908007389.275	511109392563.473
816.940	684826125323.231	599773139943.433	526453499169.005
817.283	706066177426.354	608012815328.266	529200057630.616
817.625	728148507457.705	615813041359.240	540296153815.523
817.967	744737720565.834	648332293544.712	565308146205.925
818.309	766600325920.255	671476626181.219	575268998226.700
818.651	793772944300.458	693705439330.522	585229850247.476
818.993	814976375624.094	704471948500.036	589587723006.565
819.335	835630495255.407	718900535618.365	615002543971.337
819.677	845115277142.836	741751902018.967	636389079192.412
820.019	867380711071.627	753031102101.315	653893811787.745
820.361	875217557882.090	774966949014.713	680041048342.280
820.702	897592854149.346	780496686717.423	691613214660.533
821.044	925607750457.776	803750881692.394	700109235501.783
821.386	950949329863.572	822500720790.324	700768409532.569
821.727	983834789843.925	837808206616.368	724755020097.303
822.069	1002145179587.996	858865154822.050	753136124200.615
822.410	1037118023999.174	875344505591.715	782432747791.130
822.752	1064839954071.699	909291968177.225	794224638786.312
823.093	1089266013990.291	920717651377.526	820664841576.752
823.434	1122590923324.501	929140430659.798	840256958602.909
823.776	1146401741791.344	952961730704.515	875214133164.885
824.117	1179121999093.280	985314757284.768	887736700774.267
824.458	1191681289774.831	1027986967144.308	904519144755.171
824.799	1233251807469.322	1054501025249.805	918914589045.135
825.140	1256901465945.693	1080537683417.114	945502093294.969
825.481	1288336415721.740	1121887862678.595	973815581936.712
825.822	1311141443538.241	1155342581423.897	992581071814.702
826.163	1342172439520.435	1189862269262.079	1010024531094.634
826.503	1366791063282.300	1203929655377.932	1038873502847.739
826.844	1391022153352.556	1222084560248.200	1062368085621.026
827.185	1426963709444.606	1235562643782.719	1098309641713.077
827.526	1478601103395.752	1276143985711.389	1127246789756.459
827.866	1517190505513.084	1308271047761.225	1159373851806.295
828.207	1554413584301.859	1356203147233.280	1177025272104.940
828.547	1599563474186.195	1380992954373.510	1214094074462.932
828.888	1634927076635.486	1420059551843.668	1245199232638.225
829.228	1673882584255.020	1444203079379.729	1269157610423.242
829.568	1722693938332.089	1482911237749.777	1293271965476.323
829.908	1753550832172.696	1521937225025.923	1327285099962.478
830.249	1803679360072.597	1560183435201.404	1363860359207.962
830.589	1854595590628.794	1611545914152.848	1401091397756.647
830.929	1908771839881.618	1640402679218.785	1430879026211.807
831.269	1950493799761.967	1689041410976.288	1466247621933.284
831.609	1966361951767.829	1718724189434.310	1486409509187.790
831.949	2010760808794.617	1764690934094.021	1534360513736.528
832.289	2069989498104.643	1794529913474.609	1564386688721.762
832.629	2140066272869.509	1841704632394.027	1610932601016.173
832.968	2206477033544.457	1888969272128.204	1638675705673.486
833.308	2251262250024.113	1928372100089.045	1696783043554.735
833.648	2293912569250.104	1968952015469.115	1744138826066.912
833.987	2332873805259.725	2009795436793.209	1782911843545.086
834.327	2399116036617.070	2067987997997.233	1811612184033.956
834.666	2463812678851.004	2117020050658.773	1844602187133.406
835.006	2532523027994.634	2158675261143.495	1884005206159.386
835.345	2570749802560.889	2204471694039.702	1946833370297.984
835.684	2635420613766.009	2263218988448.094	2008110144580.521
836.024	2691992913484.881	2335721579554.170	2053668625633.593
836.363	2758942294139.996	2402285569115.039	2081891566184.276
836.702	2829453047727.413	2450857100130.614	2098603530508.566
837.041	2901693824140.525	2494920075720.342	2160276995804.664
837.380	2999214190595.271	2556445434735.827	2221674782327.801
837.719	3061212810117.238	2618417199007.418	2290446234405.750
838.058	3163605581512.148	2707098911866.964	2344126242798.100
838.397	3229687724825.083	2793623476687.834	2396821377266.115
838.736	3299326331021.674	2852435425618.991	2467813315620.885
839.074	3373612961037.475	2900533847440.025	2542032466672.077
839.413	3453765257917.547	2955143402936.977	2611050239523.790
839.752	3531174678872.494	3046050595345.529	2661883544920.677
840.090	3604800702759.986	3134619786256.927	2729125005381.855
840.429	3697020671700.884	3201710276242.448	2786926590442.183
840.767	3807741908526.985	3255949327651.954	2856580419178.973
841.106	3918753247393.945	3342091010971.081	2931442582017.490
841.444	4011494909003.528	3430176050627.402	3014315080051.979
841.783	4112542224776.630	3516059751807.229	3112581092056.503
842.121	4182690862276.373	3592938224733.019	3165707204655.066
842.459	4311892806158.967	3676957744110.075	3252194828298.187
842.797	4400838795579.481	3779189247672.916	3300806336682.553
843.135	4498083994724.664	3866857546950.368	3363108901961.478
843.473	4570172150459.016	3984722952281.561	3440886099305.787
843.811	4679180189478.224	4072184313467.103	3512521030378.741
844.149	4791619431867.183	4176843938378.294	3610727814921.468
844.487	4909931043418.042	4264602772226.587	3687632372480.691
844.825	5033661658718.285	4354650194658.608	3812081628063.159
845.163	5183937735976.826	4442594479587.064	3907538069315.111
845.501	5322879170520.386	4524365810440.126	4017323055444.218
845.838	5462456047192.940	4663753697964.295	4098576260352.178
846.176	5566255703091.162	4776081494605.326	4203594222070.800
846.513	5676357966909.770	4906178137992.879	4285225909895.256
846.851	5779718836229.473	5052091991631.585	4381214068498.547
847.188	5939009865095.586	5174166126994.231	4484217049934.739
847.526	6081810446563.320	5284846806899.738	4598784851685.357
847.863	6268434897902.806	5379851537196.437	4726940887117.856
848.200	6385545184218.165	5507831955166.287	4829489298952.673
848.537	6530467876354.548	5627948924679.920	4919129480704.858
848.875	6654348555016.549	5770814865621.339	5034879459890.647
849.212	6813555450280.332	5884057056530.095	5123593400493.357
849.549	6977253350099.316	6052060707565.801	5250243483088.917
849.886	7158000780087.039	6158639547741.676	5364987618350.945
850.223	7317793349963.852	6305581851986.456	5505609551248.035
850.560	7513799062998.470	6432481439949.085	5640322547477.155
850.896	7676372868555.459	6622239266098.271	5764904885836.477
851.233	7825451765559.127	6775074350316.477	5873291754682.647
851.570	7981441093588.539	6940412970156.642	6011108310827.050
851.906	8192034254273.735	7079469531689.853	6144327833926.206
852.243	8370262010964.384	7206004446247.803	6292125598334.728
852.580	8563698594318.168	7333644843348.885	6411357537128.758
852.916	8792349788705.545	7530223443116.758	6578298149112.285
853.253	9013898393140.465	7731598648948.817	6725187963691.936
853.589	9196311864009.537	7935046304480.403	6885331840836.607
853.925	9337546344544.410	8089832519279.493	7025719337979.970
854.261	9571593989272.283	8250396935152.421	7175010882396.496
854.598	9781601373051.771	8393118751256.452	7297355996617.736
854.934	10030323414208.336	8591473151951.458	7460303613832.216
855.270	10228172850509.699	8830226103104.656	7646003271254.887
855.606	10437102171733.250	9043634309327.896	7832324887241.916
855.942	10648215490696.930	9227033724772.604	7995074772705.694
856.278	10878220630998.568	9402634755454.578	8181872542049.608
856.614	11092395213981.373	9584449560540.242	8369259229422.199
856.950	11335187041592.502	9807531375389.520	8572255658421.487
857.285	11620997544370.783	10034581123301.211	8755236990162.266
857.621	11897375229943.146	10246971920978.914	8930918307077.924
857.957	12152691261846.539	10447967723260.352	9149997702711.359
858.292	12415803837244.420	10642859516732.811	9356784382387.670
858.628	12642726645488.984	10858505579919.350	9554214165095.865
858.963	12936477412977.348	11114355627337.545	9763296292514.393
859.299	13211512097952.223	11397304437820.887	9990774121772.227
859.634	13528403924711.326	11642671940549.621	10204885366516.889
859.969	13846809887721.777	11894492270126.594	10423786159130.805
860.305	14141717585422.465	12147976287853.281	10672078605235.084
860.640	14493315477282.951	12430267560988.717	10918160097350.936
860.975	14785645452717.666	12697305671260.184	11134834406558.189
861.310	15138699787757.912	12984661761867.117	11390560870898.561
861.645	15417004360545.967	13236757156460.977	11633875755187.496
861.980	15732577634658.139	13552377226052.467	11942684960030.053
862.315	16090819845264.086	13853642154669.969	12177191421632.607
862.650	16399454046400.074	14201343976202.920	12446092077023.961
862.985	16788102142419.910	14500159915765.316	12671225358053.113
863.319	17126449449666.500	14826780642471.150	12942129089637.717
863.654	17487002861087.406	15106960390103.254	13161214827417.320
863.989	17838049599987.328	15452336786589.783	13423731377572.336
864.323	18229360681349.109	15769943175444.127	13727500417479.307
864.658	18649544280849.566	16047697768215.600	14042010597971.121
864.992	19049615298167.348	16338325587903.959	14318606712619.848
865.327	19438603517348.629	16651763243164.777	14585416077389.387
865.661	19755518462253.441	17056403108472.580	14831307714290.910
865.995	20120264441462.340	17374634301017.187	15134069989639.998
866.330	20441888225311.781	17708737532689.496	15395301743732.527
866.664	20814801763566.016	18019393440806.746	15716726807108.752
866.998	21166090526947.141	18361213734561.082	16009488336291.809
867.332	21589636793721.660	18704474309251.711	16352070492407.570
867.666	22051280688426.684	19041611127097.168	16687911848711.359
868.000	22450394450843.762	19356070277061.816	16968998816603.357
868.334	22795392316689.293	19635487023592.793	17216305672734.537
868.668	23104162206938.398	19922901011856.684	17488868080127.525
869.001	23403205495404.242	20219797940739.762	17684259252944.176
869.335	23709950604342.766	20463213903716.891	17889277394473.641
869.669	24100967643268.418	20743659197597.699	18113764575865.922
870.003	24334030823242.676	20916388565870.262	18302805623685.187
870.336	24387161894909.145	20962057536538.102	18342768081378.820
870.670	24440292966575.613	21007726507205.941	18382730539072.457
871.003	24546555109908.551	21099064448541.617	18462655454459.727
871.336	24599686181575.020	21144733419209.457	18502617912153.363
871.670	24705948324907.953	21236071360545.133	18582542827540.637
872.003	24570312576361.465	21217912358418.738	18483551931466.395
872.336	24441569971377.770	21124809027813.621	18381585526843.262
872.669	24191599341513.324	20898695349119.996	18175756779978.125
873.003	23896829836969.340	20561808108767.312	17944363251079.145
873.336	23574214984107.172	20276422158533.004	17690086114516.172
873.669	23125413570987.410	19923450826326.687	17455741339502.629
874.002	22713885306796.270	19636133487998.766	17118632602908.084
874.334	22215338758741.750	19198788391315.164	16771179026640.680
874.667	21756849410471.812	18733229848230.992	16327844884600.346
875.000	21131120531937.852	18191864041167.402	15955994708706.229
875.333	20542369229760.348	17647676797400.344	15471072556923.102
875.665	19897676667153.555	17123745340019.234	14940021092793.469
875.998	19177034093259.297	16506053440502.580	14371285228956.795
876.331	18385541563250.293	15858476734484.635	13843292028154.283
876.663	17577288786771.979	15184361624703.328	13298185671135.994
876.995	16908135998491.432	14600026339702.805	12791564767802.881
877.328	16104962462752.514	13935824311260.648	12177194400382.650
877.660	15383209604108.072	13256291474261.375	11598630358131.334
877.992	14565273904820.908	12590313338014.039	10985529135993.535
878.325	13879445875288.240	11962203434940.172	10436741655518.785
878.657	13137443566855.098	11304621993341.674	9868908524584.297
878.989	12465452565871.539	10660047981107.482	9327395997228.033
879.321	11769119589552.461	10070564305515.793	8797714232085.400
879.653	11025781850180.166	9497927216964.371	8310717380163.785
879.985	10389682997924.154	8975633567684.893	7866082363041.038
880.317	9792707364263.834	8467887579752.341	7396262702552.966
880.648	9260034288160.148	8000265992346.299	6965948865234.407
880.980	8758031270443.887	7542833170601.292	6548390023563.640
881.312	8260055871441.819	7122936744575.391	6216232150394.922
881.644	7779515494700.652	6706915170821.904	5867773650837.877
881.975	7317496742088.034	6312012943808.983	5535003779633.059
882.307	6910392178122.731	5939300454141.553	5224935109174.403
882.638	6569596438049.541	5636938624468.212	4964365540685.641
882.969	6213597603957.463	5333734829293.602	4713159965498.211
883.301	5897216111125.389	5061196742940.429	4470046150480.138
883.632	5585271154123.429	4774906530962.653	4204903709087.786
883.963	5309926771678.202	4516948317052.807	3980282754886.002
884.295	5037795353296.743	4264654258976.287	3787119273919.038
884.626	4777600107608.715	4068491666891.760	3602617611158.679
884.957	4535336412850.960	3878214387415.011	3410113713393.221
885.288	4280667275602.578	3687439556342.087	3210724086157.192
885.619	4066724278993.434	3506189804923.645	3066353478496.471
885.950	3855168744519.372	3335289725552.090	2926442748466.075
886.280	3681250316329.847	3174420256260.241	2782000535929.260
886.611	3531310266271.387	3014098774404.794	2651870009046.521
886.942	3372795020837.253	2854330695948.874	2509472543962.057
887.273	3184595053384.175	2714296512173.777	2384717088249.666
887.603	2980664873477.315	2577438101397.214	2227634978399.354
887.934	2805846322976.028	2467039641447.278	2102182398071.845
888.264	2665993047227.589	2333350774913.603	1983860231305.791
888.595	2538025157983.975	2207756328158.970	1904497766159.155
888.925	2417956153934.244	2077965420945.579	1818991992745.222
889.255	2293737496002.918	1976961827617.234	1722713080206.707
889.586	2162941111860.905	1854638087017.219	1626556612006.312
889.916	2038836354701.829	1759709752705.822	1529124739600.861
890.246	1923967656905.516	1644323194794.487	1447557969490.008
890.576	1805671131397.896	1575868518528.853	1363797021390.269
890.906	1715864905302.551	1462717050129.537	1308183726428.635
891.236	1605504552797.804	1395573561437.866	1225730897122.456
891.566	1526113820667.172	1308828237915.426	1145920799207.552
891.896	1426464583718.566	1238596834539.615	1063061439721.378
892.226	1359786683582.367	1168772663872.341	1007491024461.861
892.555	1276532201356.955	1074412769984.449	954738242007.506
892.885	1184951966583.458	999655841695.729	907381724377.428
893.215	1083488213055.367	916771759970.325	839011221467.323
893.544	1004278792573.193	870110329073.061	779317266909.764
893.874	947105007640.969	809855740925.047	712369962058.370
894.203	891945619185.212	755341300973.859	655510026203.936
894.533	831159265961.359	698019853136.021	606856641975.112
894.862	759284795381.648	653353953391.741	563170999464.339
895.191	700024288793.940	589410481063.797	537640549632.733
895.520	643208732827.546	544182892212.898	496057430869.445
895.850	593920125870.068	496561137634.532	449129807378.028
896.179	535559541262.923	453054725419.575	405250320238.401
896.508	481446762491.042	396769502431.499	362775925353.100
896.837	431843707834.831	354130015131.763	332798812716.048
897.166	380452732695.969	336942895759.328	297821755235.844
897.495	340144297834.816	320429265843.978	280294480112.599
897.823	313590701481.367	295303927615.067	257146752748.507
898.152	296074200973.658	254824247963.690	229451176049.174
898.481	266643876596.046	219947342988.639	191834436888.959
898.810	0.000	0.000	0.000
899.138	0.000	0.000	0.000
899.467	0.000	0.000	0.000
899.795	0.000	0.000	0.000
900.124	0.000	0.000	0.000
900.452	0.000	0.000	0.000
900.780	0.000	0.000	0.000
901.108	0.000	0.000	0.000
901.437	0.000	0.000	0.000
901.765	0.000	0.000	0.000
902.093	0.000	0.000	0.000
902.421	0.000	0.000	0.000
902.749	0.000	0.000	0.000
903.077	0.000	0.000	0.000
903.405	0.000	0.000	0.000
903.732	0.000	0.000	0.000
904.060	0.000	0.000	0.000
904.388	0.000	0.000	0.000
904.715	0.000	0.000	0.000
905.043	0.000	0.000	0.000
905.370	0.000	0.000	0.000
905.698	0.000	0.000	0.000
906.025	0.000	0.000	0.000
906.353	0.000	0.000	0.000
906.680	0.000	0.000	0.000
907.007	0.000	0.000	0.000
907.334	0.000	0.000	0.000
907.661	0.000	0.000	0.000
907.988	0.000	0.000	0.000
908.315	0.000	0.000	0.000
908.642	0.000	0.000	0.000
908.969	0.000	0.000	0.000
909.296	0.000	0.000	0.000
909.623	0.000	0.000	0.000
909.949	0.000	0.000	0.000
910.276	0.000	0.000	0.000
910.602	0.000	0.000	0.000
910.929	0.000	0.000	0.000
911.255	0.000	0.000	0.000
911.582	0.000	0.000	0.000
911.908	0.000	0.000	0.000
912.234	0.000	0.000	0.000
912.561	0.000	0.000	0.000
912.887	0.000	0.000	0.000
913.213	0.000	0.000	0.000
913.539	0.000	0.000	0.000
913.865	0.000	0.000	0.000
914.191	0.000	0.000	0.000
914.517	0.000	0.000	0.000
914.842	0.000	0.000	0.000
915.168	0.000	0.000	0.000
915.494	0.000	0.000	0.000
915.819	0.000	0.000	0.000
916.145	0.000	0.000	0.000
916.471	0.000	0.000	0.000
916.796	0.000	0.000	0.000
917.121	0.000	0.000	0.000
917.447	0.000	0.000	0.000
917.772	0.000	0.000	0.000
918.097	0.000	0.000	0.000
918.422	0.000	0.000	0.000
918.748	0.000	0.000	0.000
919.073	0.000	0.000	0.000
919.398	0.000	0.000	0.000
919.722	0.000	0.000	0.000
920.047	0.000	0.000	0.000
920.372	0.000	0.000	0.000
920.697	0.000	0.000	0.000
921.022	0.000	0.000	0.000
921.346	0.000	0.000	0.000
921.671	0.000	0.000	0.000
921.995	0.000	0.000	0.000
922.320	0.000	0.000	0.000
922.644	0.000	0.000	0.000
922.969	0.000	0.000	0.000
923.293	0.000	0.000	0.000
923.617	0.000	0.000	0.000
923.941	0.000	0.000	0.000
924.265	0.000	0.000	0.000
924.589	0.000	0.000	0.000
924.913	0.000	0.000	0.000
925.237	0.000	0.000	0.000
925.561	0.000	0.000	0.000
925.885	0.000	0.000	0.000
926.209	0.000	0.000	0.000
926.532	0.000	0.000	0.000
926.856	0.000	0.000	0.000
927.180	0.000	0.000	0.000
927.503	0.000	0.000	0.000
927.827	0.000	0.000	0.000
928.150	0.000	0.000	0.000
928.473	0.000	0.000	0.000
928.797	0.000	0.000	0.000
929.120	0.000	0.000	0.000
929.443	0.000	0.000	0.000
929.766	0.000	0.000	0.000
930.089	0.000	0.000	0.000
930.412	0.000	0.000	0.000
930.735	0.000	0.000	0.000
931.058	0.000	0.000	0.000
931.381	0.000	0.000	0.000
931.704	0.000	0.000	0.000
932.026	0.000	0.000	0.000
932.349	0.000	0.000	0.000
932.671	0.000	0.000	0.000
932.994	0.000	0.000	0.000
933.316	0.000	0.000	0.000
933.639	0.000	0.000	0.000
933.961	0.000	0.000	0.000
934.283	0.000	0.000	0.000
934.606	0.000	0.000	0.000
934.928	0.000	0.000	0.000
935.250	0.000	0.000	0.000
935.572	0.000	0.000	0.000
935.894	0.000	0.000	0.000
936.216	0.000	0.000	0.000
936.538	0.000	0.000	0.000
936.859	0.000	0.000	0.000
937.181	0.000	0.000	0.000
937.503	0.000	0.000	0.000
937.825	0.000	0.000	0.000
938.146	0.000	0.000	0.000
938.468	0.000	0.000	0.000
938.789	0.000	0.000	0.000
939.110	0.000	0.000	0.000
939.432	0.000	0.000	0.000
939.753	0.000	0.000	0.000
940.074	0.000	0.000	0.000
940.395	0.000	0.000	0.000
940.716	0.000	0.000	0.000
941.038	0.000	0.000	0.000
941.358	0.000	0.000	0.000
941.679	0.000	0.000	0.000
942.000	0.000	0.000	0.000
942.321	0.000	0.000	0.000
942.642	0.000	0.000	0.000
942.962	0.000	0.000	0.000
943.283	0.000	0.000	0.000
943.604	0.000	0.000	0.000
943.924	0.000	0.000	0.000
944.245	0.000	0.000	0.000
944.565	0.000	0.000	0.000
944.885	0.000	0.000	0.000
945.205	0.000	0.000	0.000
945.526	0.000	0.000	0.000
945.846	0.000	0.000	0.000
946.166	0.000	0.000	0.000
946.486	0.000	0.000	0.000
946.806	0.000	0.000	0.000
947.126	0.000	0.000	0.000
947.446	0.000	0.000	0.000
947.765	0.000	0.000	0.000
948.085	0.000	0.000	0.000
948.405	0.000	0.000	0.000
948.724	0.000	0.000	0.000
949.044	0.000	0.000	0.000
949.363	0.000	0.000	0.000
949.683	0.000	0.000	0.000
950.002	0.000	0.000	0.000
950.321	0.000	0.000	0.000
950.641	0.000	0.000	0.000
950.960	0.000	0.000	0.000
951.279	0.000	0.000	0.000
951.598	0.000	0.000	0.000
951.917	0.000	0.000	0.000
952.236	0.000	0.000	0.000
952.555	0.000	0.000	0.000
952.874	0.000	0.000	0.000
953.192	0.000	0.000	0.000
953.511	0.000	0.000	0.000
953.830	0.000	0.000	0.000
954.148	0.000	0.000	0.000
954.467	0.000	0.000	0.000
954.785	0.000	0.000	0.000
955.104	0.000	0.000	0.000
955.422	0.000	0.000	0.000
955.740	0.000	0.000	0.000
956.059	0.000	0.000	0.000
956.377	0.000	0.000	0.000
956.695	0.000	0.000	0.000
957.013	0.000	0.000	0.000
957.331	0.000	0.000	0.000
957.649	0.000	0.000	0.000
957.967	0.000	0.000	0.000
958.284	0.000	0.000	0.000
958.602	0.000	0.000	0.000
958.920	0.000	0.000	0.000
959.238	0.000	0.000	0.000
959.555	0.000	0.000	0.000
959.873	0.000	0.000	0.000
960.190	0.000	0.000	0.000
960.507	0.000	0.000	0.000
960.825	0.000	0.000	0.000
961.142	0.000	0.000	0.000
961.459	0.000	0.000	0.000
961.776	0.000	0.000	0.000
962.093	0.000	0.000	0.000
962.410	0.000	0.000	0.000
962.727	0.000	0.000	0.000
963.044	0.000	0.000	0.000
963.361	0.000	0.000	0.000
963.678	0.000	0.000	0.000
963.995	0.000	0.000	0.000
964.311	0.000	0.000	0.000
964.628	0.000	0.000	0.000
964.944	0.000	0.000	0.000
965.261	0.000	0.000	0.000
965.577	0.000	0.000	0.000
965.894	0.000	0.000	0.000
966.210	0.000	0.000	0.000
966.526	0.000	0.000	0.000
966.842	0.000	0.000	0.000
967.158	0.000	0.000	0.000
967.474	0.000	0.000	0.000
967.790	0.000	0.000	0.000
968.106	0.000	0.000	0.000
968.422	0.000	0.000	0.000
968.738	0.000	0.000	0.000
969.054	0.000	0.000	0.000
969.369	0.000	0.000	0.000
969.685	0.000	0.000	0.000
970.001	0.000	0.000	0.000
970.316	0.000	0.000	0.000
970.632	0.000	0.000	0.000
970.947	0.000	0.000	0.000
971.262	0.000	0.000	0.000
971.577	0.000	0.000	0.000
971.893	0.000	0.000	0.000
972.208	0.000	0.000	0.000
972.523	0.000	0.000	0.000
972.838	0.000	0.000	0.000
973.153	0.000	0.000	0.000
973.468	0.000	0.000	0.000
973.783	0.000	0.000	0.000
974.097	0.000	0.000	0.000
974.412	0.000	0.000	0.000
974.727	0.000	0.000	0.000
975.041	0.000	0.000	0.000
975.356	0.000	0.000	0.000
975.670	0.000	0.000	0.000
975.985	0.000	0.000	0.000
976.299	0.000	0.000	0.000
976.613	0.000	0.000	0.000
976.928	0.000	0.000	0.000
977.242	0.000	0.000	0.000
977.556	0.000	0.000	0.000
977.870	0.000	0.000	0.000
978.184	0.000	0.000	0.000
978.498	0.000	0.000	0.000
978.812	0.000	0.000	0.000
979.125	0.000	0.000	0.000
979.439	0.000	0.000	0.000
979.753	0.000	0.000	0.000
980.066	0.000	0.000	0.000
980.380	0.000	0.000	0.000
980.693	0.000	0.000	0.000
981.007	0.000	0.000	0.000
981.320	0.000	0.000	0.000
981.634	0.000	0.000	0.000
981.947	0.000	0.000	0.000
982.260	0.000	0.000	0.000
982.573	0.000	0.000	0.000
982.886	0.000	0.000	0.000
983.199	0.000	0.000	0.000
983.512	0.000	0.000	0.000
983.825	0.000	0.000	0.000
984.138	0.000	0.000	0.000
984.451	0.000	0.000	0.000
984.763	0.000	0.000	0.000
985.076	0.000	0.000	0.000
985.388	0.000	0.000	0.000
985.701	0.000	0.000	0.000
986.013	0.000	0.000	0.000
986.326	0.000	0.000	0.000
986.638	0.000	0.000	0.000
986.950	0.000	0.000	0.000
987.263	0.000	0.000	0.000
987.575	0.000	0.000	0.000
987.887	0.000	0.000	0.000
988.199	0.000	0.000	0.000
988.511	0.000	0.000	0.000
988.823	0.000	0.000	0.000
989.135	0.000	0.000	0.000
989.446	0.000	0.000	0.000
989.758	0.000	0.000	0.000
990.070	0.000	0.000	0.000
990.381	0.000	0.000	0.000
990.693	0.000	0.000	0.000
991.004	0.000	0.000	0.000
991.316	0.000	0.000	0.000
991.627	0.000	0.000	0.000
991.938	0.000	0.000	0.000
992.249	0.000	0.000	0.000
992.561	0.000	0.000	0.000
992.872	0.000	0.000	0.000
993.183	0.000	0.000	0.000
993.494	0.000	0.000	0.000
993.805	0.000	0.000	0.000
994.115	0.000	0.000	0.000
994.426	0.000	0.000	0.000
994.737	0.000	0.000	0.000
995.048	0.000	0.000	0.000
995.358	0.000	0.000	0.000
995.669	0.000	0.000	0.000
995.979	0.000	0.000	0.000
996.290	0.000	0.000	0.000
996.600	0.000	0.000	0.000
996.910	0.000	0.000	0.000
997.220	0.000	0.000	0.000
997.531	0.000	0.000	0.000
997.841	0.000	0.000	0.000
998.151	0.000	0.000	0.000
998.461	0.000	0.000	0.000
998.771	0.000	0.000	0.000
999.081	0.000	0.000	0.000
999.390	0.000	0.000	0.000
999.700	0.000	0.000	0.000
