8/27/2025	2:01:44 PM	2:01:47 PM	2:01:50 PM
LuQY (%)	0.489000	0.500000	0.477000
QFLS (eV)	1.007000	1.005000	0.999000
QFLS confidence	1.000000	1.000000	1.000000
Laser intensity (suns)	0.996000	0.911000	0.724000
Bias voltage (V)	0.000000	0.000000	0.000000
SMU current density (mA/cm2)	0.000000	0.000000	0.000000
Integration Time (ms)	170.000000	170.000000	170.000000
Delay time (s)	0.000000	0.000000	0.000000
Bandgap (eV) 	1.422000	1.422000	1.423000
Jsc (mA/cm2)	26.806000	26.806000	26.806000
EQE @ laser wavelength	0.900000	0.900000	0.900000
Laser spot size (cm²)	0.400000	0.400000	0.400000
Subcell area (cm²)	1.000000	1.000000	1.000000
Subcell	--	--	--
----------------------------  			
Wavelength (nm)	Luminescence Flux Density (photons/s/cm²/nm)		
			
550.033	0.000	0.000	0.000
550.412	0.000	0.000	0.000
550.791	0.000	0.000	0.000
551.169	0.000	0.000	0.000
551.548	0.000	0.000	0.000
551.927	0.000	0.000	0.000
552.305	0.000	0.000	0.000
552.684	0.000	0.000	0.000
553.062	0.000	0.000	0.000
553.441	0.000	0.000	0.000
553.819	0.000	0.000	0.000
554.197	0.000	0.000	0.000
554.576	0.000	0.000	0.000
554.954	0.000	0.000	0.000
555.332	0.000	0.000	0.000
555.710	0.000	0.000	0.000
556.088	0.000	0.000	0.000
556.466	0.000	0.000	0.000
556.844	0.000	0.000	0.000
557.222	0.000	0.000	0.000
557.600	0.000	0.000	0.000
557.978	0.000	0.000	0.000
558.356	0.000	0.000	0.000
558.734	0.000	0.000	0.000
559.112	0.000	0.000	0.000
559.489	0.000	0.000	0.000
559.867	0.000	0.000	0.000
560.245	0.000	0.000	0.000
560.622	0.000	0.000	0.000
561.000	0.000	0.000	0.000
561.377	0.000	0.000	0.000
561.755	0.000	0.000	0.000
562.132	0.000	0.000	0.000
562.510	0.000	0.000	0.000
562.887	0.000	0.000	0.000
563.264	0.000	0.000	0.000
563.641	0.000	0.000	0.000
564.018	0.000	0.000	0.000
564.396	0.000	0.000	0.000
564.773	0.000	0.000	0.000
565.150	0.000	0.000	0.000
565.527	0.000	0.000	0.000
565.904	0.000	0.000	0.000
566.281	0.000	0.000	0.000
566.657	0.000	0.000	0.000
567.034	0.000	0.000	0.000
567.411	0.000	0.000	0.000
567.788	0.000	0.000	0.000
568.165	0.000	0.000	0.000
568.541	0.000	0.000	0.000
568.918	0.000	0.000	0.000
569.294	0.000	0.000	0.000
569.671	0.000	0.000	0.000
570.047	0.000	0.000	0.000
570.424	0.000	0.000	0.000
570.800	0.000	0.000	0.000
571.176	0.000	0.000	0.000
571.553	0.000	0.000	0.000
571.929	0.000	0.000	0.000
572.305	0.000	0.000	0.000
572.681	0.000	0.000	0.000
573.057	0.000	0.000	0.000
573.433	0.000	0.000	0.000
573.809	0.000	0.000	0.000
574.185	0.000	0.000	0.000
574.561	0.000	0.000	0.000
574.937	0.000	0.000	0.000
575.313	0.000	0.000	0.000
575.689	0.000	0.000	0.000
576.064	0.000	0.000	0.000
576.440	0.000	0.000	0.000
576.816	0.000	0.000	0.000
577.191	0.000	0.000	0.000
577.567	0.000	0.000	0.000
577.942	0.000	0.000	0.000
578.318	0.000	0.000	0.000
578.693	0.000	0.000	0.000
579.069	0.000	0.000	0.000
579.444	0.000	0.000	0.000
579.819	0.000	0.000	0.000
580.195	0.000	0.000	0.000
580.570	0.000	0.000	0.000
580.945	0.000	0.000	0.000
581.320	0.000	0.000	0.000
581.695	0.000	0.000	0.000
582.070	0.000	0.000	0.000
582.445	0.000	0.000	0.000
582.820	0.000	0.000	0.000
583.195	0.000	0.000	0.000
583.570	0.000	0.000	0.000
583.944	0.000	0.000	0.000
584.319	0.000	0.000	0.000
584.694	0.000	0.000	0.000
585.069	0.000	0.000	0.000
585.443	0.000	0.000	0.000
585.818	0.000	0.000	0.000
586.192	0.000	0.000	0.000
586.567	0.000	0.000	0.000
586.941	0.000	0.000	0.000
587.315	0.000	0.000	0.000
587.690	0.000	0.000	0.000
588.064	0.000	0.000	0.000
588.438	0.000	0.000	0.000
588.812	0.000	0.000	0.000
589.187	0.000	0.000	0.000
589.561	0.000	0.000	0.000
589.935	0.000	0.000	0.000
590.309	0.000	0.000	0.000
590.683	0.000	0.000	0.000
591.057	0.000	0.000	0.000
591.430	0.000	0.000	0.000
591.804	0.000	0.000	0.000
592.178	0.000	0.000	0.000
592.552	0.000	0.000	0.000
592.925	0.000	0.000	0.000
593.299	0.000	0.000	0.000
593.673	0.000	0.000	0.000
594.046	0.000	0.000	0.000
594.420	0.000	0.000	0.000
594.793	0.000	0.000	0.000
595.167	0.000	0.000	0.000
595.540	0.000	0.000	0.000
595.913	0.000	0.000	0.000
596.287	0.000	0.000	0.000
596.660	0.000	0.000	0.000
597.033	0.000	0.000	0.000
597.406	0.000	0.000	0.000
597.779	0.000	0.000	0.000
598.152	0.000	0.000	0.000
598.525	0.000	0.000	0.000
598.898	0.000	0.000	0.000
599.271	0.000	0.000	0.000
599.644	0.000	0.000	0.000
600.017	0.000	0.000	0.000
600.389	0.000	0.000	0.000
600.762	0.000	0.000	0.000
601.135	0.000	0.000	0.000
601.508	0.000	0.000	0.000
601.880	0.000	0.000	0.000
602.253	0.000	0.000	0.000
602.625	0.000	0.000	0.000
602.998	0.000	0.000	0.000
603.370	0.000	0.000	0.000
603.742	0.000	0.000	0.000
604.115	0.000	0.000	0.000
604.487	0.000	0.000	0.000
604.859	0.000	0.000	0.000
605.231	0.000	0.000	0.000
605.603	0.000	0.000	0.000
605.975	0.000	0.000	0.000
606.347	0.000	0.000	0.000
606.719	0.000	0.000	0.000
607.091	0.000	0.000	0.000
607.463	0.000	0.000	0.000
607.835	0.000	0.000	0.000
608.207	0.000	0.000	0.000
608.579	0.000	0.000	0.000
608.950	0.000	0.000	0.000
609.322	0.000	0.000	0.000
609.694	0.000	0.000	0.000
610.065	0.000	0.000	0.000
610.437	0.000	0.000	0.000
610.808	0.000	0.000	0.000
611.179	0.000	0.000	0.000
611.551	0.000	0.000	0.000
611.922	0.000	0.000	0.000
612.293	0.000	0.000	0.000
612.665	0.000	0.000	0.000
613.036	0.000	0.000	0.000
613.407	0.000	0.000	0.000
613.778	0.000	0.000	0.000
614.149	0.000	0.000	0.000
614.520	0.000	0.000	0.000
614.891	0.000	0.000	0.000
615.262	0.000	0.000	0.000
615.633	0.000	0.000	0.000
616.004	0.000	0.000	0.000
616.374	0.000	0.000	0.000
616.745	0.000	0.000	0.000
617.116	0.000	0.000	0.000
617.486	0.000	0.000	0.000
617.857	0.000	0.000	0.000
618.228	0.000	0.000	0.000
618.598	0.000	0.000	0.000
618.968	0.000	0.000	0.000
619.339	0.000	0.000	0.000
619.709	0.000	0.000	0.000
620.079	0.000	0.000	0.000
620.450	0.000	0.000	0.000
620.820	0.000	0.000	0.000
621.190	0.000	0.000	0.000
621.560	0.000	0.000	0.000
621.930	0.000	0.000	0.000
622.300	0.000	0.000	0.000
622.670	0.000	0.000	0.000
623.040	0.000	0.000	0.000
623.410	0.000	0.000	0.000
623.780	0.000	0.000	0.000
624.150	0.000	0.000	0.000
624.519	0.000	0.000	0.000
624.889	0.000	0.000	0.000
625.259	0.000	0.000	0.000
625.628	0.000	0.000	0.000
625.998	0.000	0.000	0.000
626.367	0.000	0.000	0.000
626.737	0.000	0.000	0.000
627.106	0.000	0.000	0.000
627.475	0.000	0.000	0.000
627.845	0.000	0.000	0.000
628.214	0.000	0.000	0.000
628.583	0.000	0.000	0.000
628.952	0.000	0.000	0.000
629.322	0.000	0.000	0.000
629.691	0.000	0.000	0.000
630.060	0.000	0.000	0.000
630.429	0.000	0.000	0.000
630.798	0.000	0.000	0.000
631.166	0.000	0.000	0.000
631.535	0.000	0.000	0.000
631.904	0.000	0.000	0.000
632.273	0.000	0.000	0.000
632.641	0.000	0.000	0.000
633.010	0.000	0.000	0.000
633.379	0.000	0.000	0.000
633.747	0.000	0.000	0.000
634.116	0.000	0.000	0.000
634.484	0.000	0.000	0.000
634.853	0.000	0.000	0.000
635.221	0.000	0.000	0.000
635.589	0.000	0.000	0.000
635.958	0.000	0.000	0.000
636.326	0.000	0.000	0.000
636.694	0.000	0.000	0.000
637.062	0.000	0.000	0.000
637.430	0.000	0.000	0.000
637.798	0.000	0.000	0.000
638.166	0.000	0.000	0.000
638.534	0.000	0.000	0.000
638.902	0.000	0.000	0.000
639.270	0.000	0.000	0.000
639.638	0.000	0.000	0.000
640.005	0.000	0.000	0.000
640.373	0.000	0.000	0.000
640.741	0.000	0.000	0.000
641.108	0.000	0.000	0.000
641.476	0.000	0.000	0.000
641.843	0.000	0.000	0.000
642.211	0.000	0.000	0.000
642.578	0.000	0.000	0.000
642.946	0.000	0.000	0.000
643.313	0.000	0.000	0.000
643.680	0.000	0.000	0.000
644.047	0.000	0.000	0.000
644.415	0.000	0.000	0.000
644.782	0.000	0.000	0.000
645.149	0.000	0.000	0.000
645.516	0.000	0.000	0.000
645.883	0.000	0.000	0.000
646.250	0.000	0.000	0.000
646.617	0.000	0.000	0.000
646.983	0.000	0.000	0.000
647.350	0.000	0.000	0.000
647.717	0.000	0.000	0.000
648.084	0.000	0.000	0.000
648.450	0.000	0.000	0.000
648.817	0.000	0.000	0.000
649.183	0.000	0.000	0.000
649.550	0.000	0.000	0.000
649.916	0.000	0.000	0.000
650.283	0.000	0.000	0.000
650.649	0.000	0.000	0.000
651.015	0.000	0.000	0.000
651.382	0.000	0.000	0.000
651.748	0.000	0.000	0.000
652.114	0.000	0.000	0.000
652.480	0.000	0.000	0.000
652.846	0.000	0.000	0.000
653.212	0.000	0.000	0.000
653.578	0.000	0.000	0.000
653.944	0.000	0.000	0.000
654.310	0.000	0.000	0.000
654.676	0.000	0.000	0.000
655.042	0.000	0.000	0.000
655.407	0.000	0.000	0.000
655.773	0.000	0.000	0.000
656.139	0.000	0.000	0.000
656.504	0.000	0.000	0.000
656.870	0.000	0.000	0.000
657.235	0.000	0.000	0.000
657.601	0.000	0.000	0.000
657.966	0.000	0.000	0.000
658.331	0.000	0.000	0.000
658.697	0.000	0.000	0.000
659.062	0.000	0.000	0.000
659.427	0.000	0.000	0.000
659.792	0.000	0.000	0.000
660.157	0.000	0.000	0.000
660.522	0.000	0.000	0.000
660.887	0.000	0.000	0.000
661.252	0.000	0.000	0.000
661.617	0.000	0.000	0.000
661.982	0.000	0.000	0.000
662.347	0.000	0.000	0.000
662.712	0.000	0.000	0.000
663.076	0.000	0.000	0.000
663.441	0.000	0.000	0.000
663.806	0.000	0.000	0.000
664.170	0.000	0.000	0.000
664.535	0.000	0.000	0.000
664.899	0.000	0.000	0.000
665.264	0.000	0.000	0.000
665.628	0.000	0.000	0.000
665.992	0.000	0.000	0.000
666.357	0.000	0.000	0.000
666.721	0.000	0.000	0.000
667.085	0.000	0.000	0.000
667.449	0.000	0.000	0.000
667.813	0.000	0.000	0.000
668.177	0.000	0.000	0.000
668.541	0.000	0.000	0.000
668.905	0.000	0.000	0.000
669.269	0.000	0.000	0.000
669.633	0.000	0.000	0.000
669.997	0.000	0.000	0.000
670.361	0.000	0.000	0.000
670.724	0.000	0.000	0.000
671.088	0.000	0.000	0.000
671.451	0.000	0.000	0.000
671.815	0.000	0.000	0.000
672.179	0.000	0.000	0.000
672.542	0.000	0.000	0.000
672.905	0.000	0.000	0.000
673.269	0.000	0.000	0.000
673.632	0.000	0.000	0.000
673.995	0.000	0.000	0.000
674.358	0.000	0.000	0.000
674.722	0.000	0.000	0.000
675.085	0.000	0.000	0.000
675.448	0.000	0.000	0.000
675.811	0.000	0.000	0.000
676.174	0.000	0.000	0.000
676.537	0.000	0.000	0.000
676.900	0.000	0.000	0.000
677.262	0.000	0.000	0.000
677.625	0.000	0.000	0.000
677.988	0.000	0.000	0.000
678.350	0.000	0.000	0.000
678.713	0.000	0.000	0.000
679.076	0.000	0.000	0.000
679.438	0.000	0.000	0.000
679.801	0.000	0.000	0.000
680.163	0.000	0.000	0.000
680.525	0.000	0.000	0.000
680.888	0.000	0.000	0.000
681.250	0.000	0.000	0.000
681.612	0.000	0.000	0.000
681.974	0.000	0.000	0.000
682.337	0.000	0.000	0.000
682.699	0.000	0.000	0.000
683.061	0.000	0.000	0.000
683.423	0.000	0.000	0.000
683.785	0.000	0.000	0.000
684.146	0.000	0.000	0.000
684.508	0.000	0.000	0.000
684.870	0.000	0.000	0.000
685.232	0.000	0.000	0.000
685.593	0.000	0.000	0.000
685.955	0.000	0.000	0.000
686.317	0.000	0.000	0.000
686.678	0.000	0.000	0.000
687.040	0.000	0.000	0.000
687.401	0.000	0.000	0.000
687.762	0.000	0.000	0.000
688.124	0.000	0.000	0.000
688.485	0.000	0.000	0.000
688.846	0.000	0.000	0.000
689.208	0.000	0.000	0.000
689.569	0.000	0.000	0.000
689.930	0.000	0.000	0.000
690.291	0.000	0.000	0.000
690.652	0.000	0.000	0.000
691.013	0.000	0.000	0.000
691.374	0.000	0.000	0.000
691.734	0.000	0.000	0.000
692.095	0.000	0.000	0.000
692.456	0.000	0.000	0.000
692.817	0.000	0.000	0.000
693.177	0.000	0.000	0.000
693.538	0.000	0.000	0.000
693.898	0.000	0.000	0.000
694.259	0.000	0.000	0.000
694.619	0.000	0.000	0.000
694.980	0.000	0.000	0.000
695.340	0.000	0.000	0.000
695.700	0.000	0.000	0.000
696.061	0.000	0.000	0.000
696.421	0.000	0.000	0.000
696.781	0.000	0.000	0.000
697.141	0.000	0.000	0.000
697.501	0.000	0.000	0.000
697.861	0.000	0.000	0.000
698.221	0.000	0.000	0.000
698.581	0.000	0.000	0.000
698.941	0.000	0.000	0.000
699.301	0.000	0.000	0.000
699.660	0.000	0.000	0.000
700.020	0.000	0.000	0.000
700.380	0.000	0.000	0.000
700.739	0.000	0.000	0.000
701.099	0.000	0.000	0.000
701.458	0.000	0.000	0.000
701.818	0.000	0.000	0.000
702.177	0.000	0.000	0.000
702.536	0.000	0.000	0.000
702.896	0.000	0.000	0.000
703.255	0.000	0.000	0.000
703.614	0.000	0.000	0.000
703.973	0.000	0.000	0.000
704.332	0.000	0.000	0.000
704.692	0.000	0.000	0.000
705.051	0.000	0.000	0.000
705.409	0.000	0.000	0.000
705.768	0.000	0.000	0.000
706.127	0.000	0.000	0.000
706.486	0.000	0.000	0.000
706.845	0.000	0.000	0.000
707.203	0.000	0.000	0.000
707.562	0.000	0.000	0.000
707.921	0.000	0.000	0.000
708.279	0.000	0.000	0.000
708.638	0.000	0.000	0.000
708.996	0.000	0.000	0.000
709.355	0.000	0.000	0.000
709.713	0.000	0.000	0.000
710.071	0.000	0.000	0.000
710.429	0.000	0.000	0.000
710.788	0.000	0.000	0.000
711.146	0.000	0.000	0.000
711.504	0.000	0.000	0.000
711.862	0.000	0.000	0.000
712.220	0.000	0.000	0.000
712.578	0.000	0.000	0.000
712.936	0.000	0.000	0.000
713.294	0.000	0.000	0.000
713.651	0.000	0.000	0.000
714.009	0.000	0.000	0.000
714.367	0.000	0.000	0.000
714.724	0.000	0.000	0.000
715.082	0.000	0.000	0.000
715.440	0.000	0.000	0.000
715.797	0.000	0.000	0.000
716.154	0.000	0.000	0.000
716.512	0.000	0.000	0.000
716.869	0.000	0.000	0.000
717.226	0.000	0.000	0.000
717.584	0.000	0.000	0.000
717.941	0.000	0.000	0.000
718.298	0.000	0.000	0.000
718.655	0.000	0.000	0.000
719.012	0.000	0.000	0.000
719.369	0.000	0.000	0.000
719.726	0.000	0.000	0.000
720.083	0.000	0.000	0.000
720.440	0.000	0.000	0.000
720.797	0.000	0.000	0.000
721.153	0.000	0.000	0.000
721.510	0.000	0.000	0.000
721.867	0.000	0.000	0.000
722.223	0.000	0.000	0.000
722.580	0.000	0.000	0.000
722.936	0.000	0.000	0.000
723.293	0.000	0.000	0.000
723.649	0.000	0.000	0.000
724.005	0.000	0.000	0.000
724.362	0.000	0.000	0.000
724.718	0.000	0.000	0.000
725.074	0.000	0.000	0.000
725.430	0.000	0.000	0.000
725.786	0.000	0.000	0.000
726.142	0.000	0.000	0.000
726.498	0.000	0.000	0.000
726.854	0.000	0.000	0.000
727.210	0.000	0.000	0.000
727.566	0.000	0.000	0.000
727.921	0.000	0.000	0.000
728.277	0.000	0.000	0.000
728.633	0.000	0.000	0.000
728.988	0.000	0.000	0.000
729.344	0.000	0.000	0.000
729.700	0.000	0.000	0.000
730.055	0.000	0.000	0.000
730.410	0.000	0.000	0.000
730.766	0.000	0.000	0.000
731.121	0.000	0.000	0.000
731.476	0.000	0.000	0.000
731.831	0.000	0.000	0.000
732.187	0.000	0.000	0.000
732.542	0.000	0.000	0.000
732.897	0.000	0.000	0.000
733.252	0.000	0.000	0.000
733.607	0.000	0.000	0.000
733.962	0.000	0.000	0.000
734.316	0.000	0.000	0.000
734.671	0.000	0.000	0.000
735.026	0.000	0.000	0.000
735.381	0.000	0.000	0.000
735.735	0.000	0.000	0.000
736.090	0.000	0.000	0.000
736.444	0.000	0.000	0.000
736.799	0.000	0.000	0.000
737.153	0.000	0.000	0.000
737.508	0.000	0.000	0.000
737.862	0.000	0.000	0.000
738.216	0.000	0.000	0.000
738.571	0.000	0.000	0.000
738.925	0.000	0.000	0.000
739.279	0.000	0.000	0.000
739.633	0.000	0.000	0.000
739.987	0.000	0.000	0.000
740.341	0.000	0.000	0.000
740.695	0.000	0.000	0.000
741.049	0.000	0.000	0.000
741.403	0.000	0.000	0.000
741.756	0.000	0.000	0.000
742.110	0.000	0.000	0.000
742.464	0.000	0.000	0.000
742.817	0.000	0.000	0.000
743.171	0.000	0.000	0.000
743.524	0.000	0.000	0.000
743.878	0.000	0.000	0.000
744.231	0.000	0.000	0.000
744.585	0.000	0.000	0.000
744.938	0.000	0.000	0.000
745.291	0.000	0.000	0.000
745.644	0.000	0.000	0.000
745.998	0.000	0.000	0.000
746.351	0.000	0.000	0.000
746.704	0.000	0.000	0.000
747.057	0.000	0.000	0.000
747.410	0.000	0.000	0.000
747.762	0.000	0.000	0.000
748.115	0.000	0.000	0.000
748.468	0.000	0.000	0.000
748.821	0.000	0.000	0.000
749.174	0.000	0.000	0.000
749.526	0.000	0.000	0.000
749.879	0.000	0.000	0.000
750.231	0.000	0.000	0.000
750.584	0.000	0.000	0.000
750.936	0.000	0.000	0.000
751.289	0.000	0.000	0.000
751.641	0.000	0.000	0.000
751.993	0.000	0.000	0.000
752.345	0.000	0.000	0.000
752.697	0.000	0.000	0.000
753.050	0.000	0.000	0.000
753.402	0.000	0.000	0.000
753.754	0.000	0.000	0.000
754.106	0.000	0.000	0.000
754.458	0.000	0.000	0.000
754.809	0.000	0.000	0.000
755.161	0.000	0.000	0.000
755.513	0.000	0.000	0.000
755.865	0.000	0.000	0.000
756.216	0.000	0.000	0.000
756.568	0.000	0.000	0.000
756.919	0.000	0.000	0.000
757.271	0.000	0.000	0.000
757.622	0.000	0.000	0.000
757.974	0.000	0.000	0.000
758.325	0.000	0.000	0.000
758.676	0.000	0.000	0.000
759.028	0.000	0.000	0.000
759.379	0.000	0.000	0.000
759.730	0.000	0.000	0.000
760.081	0.000	0.000	0.000
760.432	0.000	0.000	0.000
760.783	0.000	0.000	0.000
761.134	0.000	0.000	0.000
761.485	0.000	0.000	0.000
761.835	0.000	0.000	0.000
762.186	0.000	0.000	0.000
762.537	0.000	0.000	0.000
762.888	0.000	0.000	0.000
763.238	0.000	0.000	0.000
763.589	0.000	0.000	0.000
763.939	0.000	0.000	0.000
764.290	0.000	0.000	0.000
764.640	0.000	0.000	0.000
764.990	0.000	0.000	0.000
765.341	0.000	0.000	0.000
765.691	0.000	0.000	0.000
766.041	0.000	0.000	0.000
766.391	0.000	0.000	0.000
766.741	0.000	0.000	0.000
767.091	0.000	0.000	0.000
767.441	0.000	0.000	0.000
767.791	0.000	0.000	0.000
768.141	0.000	0.000	0.000
768.491	0.000	0.000	0.000
768.841	0.000	0.000	0.000
769.190	0.000	0.000	0.000
769.540	0.000	0.000	0.000
769.890	0.000	0.000	0.000
770.239	0.000	0.000	0.000
770.589	0.000	0.000	0.000
770.938	0.000	0.000	0.000
771.288	0.000	0.000	0.000
771.637	0.000	0.000	0.000
771.986	0.000	0.000	0.000
772.335	0.000	0.000	0.000
772.685	0.000	0.000	0.000
773.034	0.000	0.000	0.000
773.383	0.000	0.000	0.000
773.732	0.000	0.000	0.000
774.081	0.000	0.000	0.000
774.430	0.000	0.000	0.000
774.779	0.000	0.000	0.000
775.127	0.000	0.000	0.000
775.476	0.000	0.000	0.000
775.825	0.000	0.000	0.000
776.174	0.000	0.000	0.000
776.522	0.000	0.000	0.000
776.871	0.000	0.000	0.000
777.219	0.000	0.000	0.000
777.568	0.000	0.000	0.000
777.916	0.000	0.000	0.000
778.264	0.000	0.000	0.000
778.613	0.000	0.000	0.000
778.961	0.000	0.000	0.000
779.309	0.000	0.000	0.000
779.657	0.000	0.000	0.000
780.005	0.000	0.000	0.000
780.353	0.000	0.000	0.000
780.701	0.000	0.000	0.000
781.049	0.000	0.000	0.000
781.397	0.000	0.000	0.000
781.745	0.000	0.000	0.000
782.093	0.000	0.000	0.000
782.440	0.000	0.000	0.000
782.788	0.000	0.000	0.000
783.136	0.000	0.000	0.000
783.483	0.000	0.000	0.000
783.831	0.000	0.000	0.000
784.178	0.000	0.000	0.000
784.525	0.000	0.000	0.000
784.873	0.000	0.000	0.000
785.220	0.000	0.000	0.000
785.567	0.000	0.000	0.000
785.914	0.000	0.000	0.000
786.262	0.000	0.000	0.000
786.609	0.000	0.000	0.000
786.956	0.000	0.000	0.000
787.303	0.000	0.000	0.000
787.649	0.000	0.000	0.000
787.996	0.000	0.000	0.000
788.343	0.000	0.000	0.000
788.690	0.000	0.000	0.000
789.037	0.000	0.000	0.000
789.383	0.000	0.000	0.000
789.730	0.000	0.000	0.000
790.076	0.000	0.000	0.000
790.423	0.000	0.000	0.000
790.769	0.000	0.000	0.000
791.116	0.000	0.000	0.000
791.462	0.000	0.000	0.000
791.808	0.000	0.000	0.000
792.154	0.000	0.000	0.000
792.501	0.000	0.000	0.000
792.847	0.000	0.000	0.000
793.193	0.000	0.000	0.000
793.539	0.000	0.000	0.000
793.885	0.000	0.000	0.000
794.231	0.000	0.000	0.000
794.576	0.000	0.000	0.000
794.922	0.000	0.000	0.000
795.268	0.000	0.000	0.000
795.614	0.000	0.000	0.000
795.959	0.000	0.000	0.000
796.305	0.000	0.000	0.000
796.650	0.000	0.000	0.000
796.996	0.000	0.000	0.000
797.341	0.000	0.000	0.000
797.686	0.000	0.000	0.000
798.032	0.000	0.000	0.000
798.377	0.000	0.000	0.000
798.722	0.000	0.000	0.000
799.067	0.000	0.000	0.000
799.412	0.000	0.000	0.000
799.757	0.000	0.000	0.000
800.102	0.000	0.000	0.000
800.447	0.000	0.000	0.000
800.792	0.000	0.000	111515036927.398
801.137	143453072784.091	134240577627.826	111901649103.358
801.482	149990333213.961	134978655418.295	120547703220.282
801.827	158776973576.689	142710898937.496	126522618666.937
802.171	172519279103.995	156101738850.293	127084963650.152
802.516	182184583502.996	167348638514.585	131654016638.770
802.860	186683343368.712	174483390489.120	140721829493.105
803.205	193115164114.229	179860814391.109	149438176732.931
803.549	193290896921.484	184254134572.473	154710160950.568
803.894	204608089708.677	195044128937.903	164621491279.725
804.238	207454961186.201	199472595680.718	167468362757.249
804.582	220835234074.783	206133608864.866	170302908878.343
804.927	223619655871.084	208741801433.554	171571759317.164
805.271	235391768275.702	212583598595.540	175025852178.399
805.615	245084375794.474	224743415300.908	183484855103.872
805.959	250688465232.600	225236857138.227	187855339948.701
806.303	263024511165.582	239687653802.578	201777448930.209
806.647	276735145073.954	244586826330.248	209496289099.704
806.991	290622008209.940	259354835604.304	218096275407.269
807.335	296190851802.544	264641712432.725	219259388309.521
807.678	296437572721.203	272853994439.539	220739713821.479
808.022	304624395093.017	283695959175.267	231717638803.492
808.366	314803792416.292	293521905202.595	237125443631.481
808.709	336611737376.223	304903036932.089	254691973040.048
809.053	345978196718.819	308084098595.612	262821352846.829
809.397	357323983318.718	316425549179.961	273990413798.755
809.740	360929186537.378	321798008878.356	279893050441.071
810.083	373618088061.876	337844697714.351	283745669566.893
810.427	381888848387.036	348766342759.114	289895722116.371
810.770	388957874305.976	367322535796.333	300852712290.729
811.113	406913200140.085	376795030527.712	316157153405.235
811.457	420415039645.261	392417577808.571	322589966991.471
811.800	440773834291.810	400405577096.974	322802037769.039
812.143	448090276117.913	414084142250.123	327114143579.592
812.486	466257672729.590	419880743503.654	342453929823.693
812.829	474868934508.756	436336726084.698	359401309628.406
813.172	486707368673.399	450124603001.005	372480298271.380
813.515	493016474306.054	466180922391.973	385878286637.355
813.857	510703236725.686	471993806233.296	394349501503.671
814.200	528992554177.650	490460345753.592	395802722464.002
814.543	543737430262.955	498648005310.576	405053714430.984
814.886	560750748822.921	523636316945.528	417813703350.959
815.228	575117210397.638	533455854308.879	441376579434.195
815.571	600317692094.229	552080751923.849	455380796343.161
815.913	605578159359.526	555208597324.836	464195633382.307
816.256	621608367039.586	573371426869.206	471695353605.129
816.598	628646019191.808	591960780786.437	489218396590.206
816.940	652140403396.951	614566572548.118	515023121148.351
817.283	672293680014.677	618547466694.830	531977464969.612
817.625	686262353225.904	633582450838.212	533505843972.367
817.967	700835269298.686	647799929933.609	538126524678.372
818.309	722054856848.566	677727723429.420	552415091169.245
818.651	763534352109.387	696814689114.990	573990115696.510
818.993	785358182520.821	712062935444.804	584262244342.935
819.335	805191565858.900	728164230520.340	601252131861.934
819.677	815570325598.540	749916973536.298	611275454624.189
820.019	837358612312.236	777214533399.460	631997430405.730
820.361	847808459447.353	797972052878.740	641914122074.770
820.702	870769688186.419	814535416024.877	661498699528.679
821.044	889821110174.251	830032468238.860	676640314765.277
821.386	923907516305.465	849190521319.908	693488027493.322
821.727	934179644951.889	867637700446.185	707492244402.288
822.069	973526518348.401	886013792176.986	717160130187.158
822.410	1007293031199.969	908939477218.313	735109697545.097
822.752	1037896154952.811	931012113513.917	754161119532.929
823.093	1046071205432.663	955537264953.477	781529766791.568
823.434	1067859492146.359	975015211314.171	807050141767.806
823.776	1099534940247.147	1002332374940.194	824452739042.158
824.117	1139241221983.920	1036513994496.356	846872174600.893
824.458	1163906165396.708	1071515402634.156	869754968923.161
824.799	1192491836808.639	1105982166044.802	896202061426.469
825.140	1200333292806.924	1120417573678.008	921152148693.740
825.481	1227528887928.250	1135494554983.802	936050915090.482
825.822	1256756133012.768	1156702129160.983	956010984904.300
826.163	1311681967982.575	1190063960135.506	971907754791.733
826.503	1337960532503.282	1225296744961.520	1004030903553.776
826.844	1379778983585.553	1257107361596.751	1035484097530.184
827.185	1405263219159.621	1300641441441.372	1072941992174.817
827.526	1449380947150.319	1336941827892.476	1105384140659.859
827.866	1472893003920.260	1366546948154.627	1122265510688.277
828.207	1507838515125.584	1381241983635.839	1130329859427.967
828.547	1550795513031.754	1406416994126.651	1147441951507.955
828.888	1590474193796.539	1433696087152.441	1176158677894.787
829.228	1619694091859.738	1477651727166.328	1206277096808.637
829.568	1650838072323.670	1537956222247.685	1251055489794.805
829.908	1690698442940.023	1583943412940.693	1281365229115.197
830.249	1750849400045.533	1626254511587.709	1328361543114.948
830.589	1793257654886.339	1666693256723.549	1352981794563.868
830.929	1831709978795.073	1694484456992.174	1385471117114.576
831.269	1870081740408.907	1724687907872.263	1423341721514.562
831.609	1926324181456.117	1741430180915.956	1462189593165.728
831.949	1969792988752.908	1789298055299.501	1501843140928.809
832.289	2017868123477.873	1842460505868.376	1521392968957.554
832.629	2075340949115.486	1907288085413.065	1566942501330.133
832.968	2121142577878.122	1943433841763.530	1609829149741.925
833.308	2157539877154.175	1987202276818.520	1655246137878.523
833.648	2188157496381.514	2015993069122.987	1670883776338.310
833.987	2246689030990.340	2079091671038.994	1695801695566.287
834.327	2321193244889.004	2127129023333.264	1733821722494.475
834.666	2391057758452.456	2192963596418.488	1784086071004.730
835.006	2445550374103.990	2252796988578.702	1822607085359.701
835.345	2490110058411.289	2292764784560.846	1858717695148.716
835.684	2546345506660.872	2335390658516.466	1894092794401.615
836.024	2621942540338.886	2374778084615.008	1949464897143.076
836.363	2688021309328.378	2462412208314.749	2018365050384.694
836.702	2741682066654.097	2522738898227.513	2072951631680.836
837.041	2796153236946.101	2581821603520.127	2127486571128.077
837.380	2881704094536.044	2642598889351.849	2167874821023.182
837.719	2952328386189.116	2713705491455.407	2229689367905.853
838.058	3035377384451.371	2790879641044.698	2296593017745.730
838.397	3101299086039.124	2843580465479.959	2353987437747.625
838.736	3184726895948.255	2911996523718.531	2415835854630.328
839.074	3260958950550.113	2997666808476.185	2456544295657.295
839.413	3344603951095.956	3082692143902.807	2509770869605.101
839.752	3413286047734.612	3162411440675.132	2564151323036.472
840.090	3495784317250.065	3227563579850.846	2630956979497.388
840.429	3576576191421.854	3298336984609.124	2688950976009.459
840.767	3680617218141.206	3357998317472.743	2763605634058.125
841.106	3788629905588.583	3452939053875.470	2845913406220.690
841.444	3874504627821.049	3526253138033.545	2928956277651.569
841.783	3946287862445.354	3614424487846.313	2980039010634.940
842.121	4021020472621.971	3686275377836.172	3035368038220.714
842.459	4139542577647.603	3787945787200.102	3109161406945.688
842.797	4250936384163.372	3893798835944.833	3183526453356.636
843.135	4347979273791.116	3972692883511.566	3257884152746.262
843.473	4433934217553.673	4055744550872.982	3348613894875.485
843.811	4554598674282.658	4137689995105.342	3426026465873.256
844.149	4655336122793.770	4252776263968.187	3512959684377.276
844.487	4758306314426.253	4348918193556.076	3581983658988.063
844.825	4858898708908.325	4474482307662.312	3699141828215.077
845.163	4990686555916.163	4570391163050.090	3802691030423.339
845.501	5136486165422.435	4714143821275.316	3913833279882.006
845.838	5267310261944.387	4825178902868.548	3991511832908.384
846.176	5395372119930.666	4945160526663.633	4057296763957.660
846.513	5510437153572.905	5039926721667.969	4145282294339.699
846.851	5635202638175.596	5159548584787.201	4242254919625.621
847.188	5749682292929.939	5268666193099.921	4366547542974.954
847.526	5852302309640.851	5408021316412.067	4435808111529.066
847.863	5988282823720.753	5541099546931.548	4547146546313.797
848.200	6113335182919.745	5669336939156.938	4640945768941.248
848.537	6273341945977.936	5813069839851.856	4778921127374.751
848.875	6424426148778.973	5955807020589.738	4863469840324.062
849.212	6569547790270.863	6077722003116.839	4957576843574.389
849.549	6730488816445.589	6195526868436.320	5068390562039.153
849.886	6881409796232.431	6331653318531.130	5199113417588.853
850.223	7049440002992.688	6501550848544.814	5299301059690.887
850.560	7200313227140.951	6636729532889.312	5419193909394.183
850.896	7389514868676.220	6790924889796.479	5555409854789.630
851.233	7522461800851.958	6944733391158.844	5694838051178.689
851.570	7711855457782.276	7113016562163.514	5823917358202.235
851.906	7881772558328.903	7288796673436.989	5980466582237.754
852.243	8043449279476.371	7467185672267.658	6102821081219.621
852.580	8221729616731.689	7610577090238.632	6225401564880.636
852.916	8411489731171.370	7794350661424.466	6343220171753.896
853.253	8638157706497.384	7945302904123.175	6505616830487.755
853.589	8813294071419.473	8146506588402.792	6659764769960.415
853.925	9026498474520.584	8313469435018.698	6813163426673.998
854.261	9227575384611.170	8522506731854.921	6960274706835.155
854.598	9429469544810.121	8687730320099.370	7094184098803.848
854.934	9624875547282.197	8877012270878.023	7217259896568.032
855.270	9836181893868.293	9058988899646.627	7383861335030.728
855.606	10044307023135.316	9247655343662.902	7549342962578.030
855.942	10269548187064.125	9475758657245.527	7746813109685.887
856.278	10517383824370.418	9678847249630.074	7925381455902.259
856.614	10738321563115.521	9868792968912.721	8059375140047.989
856.950	10941839272829.580	10067316479671.527	8246074355332.220
857.285	11176006471958.057	10302118390300.848	8408617259503.981
857.621	11409360733105.855	10546175760680.389	8617801040698.107
857.957	11687204186869.904	10785226235314.252	8808814843894.689
858.292	11950741997282.717	11013585999654.582	9031028865252.492
858.628	12196037990942.525	11218469404690.154	9183923158880.846
858.963	12465824244420.061	11472025480796.053	9389641131693.254
859.299	12744104051680.094	11719417803150.557	9627692749631.639
859.634	12998370417607.111	12001166782879.969	9847723216396.252
859.969	13275359333364.357	12215054503764.561	10038932907066.682
860.305	13589193163906.357	12519383163544.746	10222537537114.010
860.640	13932010000716.014	12799510337959.748	10471695468470.879
860.975	14271327216188.033	13107235361754.705	10715382265893.412
861.310	14601060993707.762	13392540299803.117	10970519679764.246
861.645	14885248401813.707	13653765077622.205	11232772981635.955
861.980	15182330924461.467	13975080646399.234	11491307697878.902
862.315	15477524071221.068	14274810865105.520	11768066005518.219
862.650	15780010867382.826	14595395161892.344	11966923065957.896
862.985	16092518064156.166	14901501800832.031	12200031032104.398
863.319	16426337182666.242	15222626744191.018	12462350953588.350
863.654	16802562116827.924	15515173859579.758	12719931649184.455
863.989	17207428520049.941	15855561005011.215	13009566207391.937
864.323	17553253167817.660	16178903557400.057	13248392638227.389
864.658	17897765875859.359	16525090977595.703	13522813997382.437
864.992	18215947355909.652	16832271572341.080	13789238421682.609
865.327	18623066713291.121	17189078516150.713	14064104176343.459
865.661	19004923834283.270	17486762887271.525	14361755724788.334
865.995	19380908898127.258	17817002108430.496	14582449806289.488
866.330	19706437002361.508	18081351157423.988	14843931968774.791
866.664	20035313164068.207	18450856136892.730	15107194493237.312
866.998	20405008085537.266	18802796870486.559	15440099432794.461
867.332	20817210489547.555	19160263755522.082	15759575208787.059
867.666	21217438595870.246	19599112945534.172	16057474655427.941
868.000	21623342716211.715	19907164956578.570	16310640386915.016
868.334	21947636918000.449	20280832420761.523	16544396678050.990
868.668	22270230482921.699	20558810492156.285	16803314134391.092
869.001	22519389775474.500	20874508766713.625	17061815789038.100
869.335	22845593904954.281	21081443723327.465	17277744830792.721
869.669	23251554673588.207	21345800164142.973	17562360565034.377
870.003	23528929903669.199	21500095698678.680	17741571874900.340
870.336	23580303113065.855	21674775742435.555	17780308931395.758
870.670	23631676322462.516	21721997476079.207	17819045987891.172
871.003	23734422741255.828	21816440943366.508	17896520100882.004
871.336	23785795950652.488	21863662677010.160	17935257157377.422
871.670	23888542369445.801	21958106144297.457	18012731270368.250
872.003	23798710594702.766	22005327877941.109	18001870770180.262
872.336	23737247909898.258	21840450483572.687	17928074479822.656
872.669	23469189808435.012	21580446095882.656	17730720764668.102
873.003	23237196447519.562	21317360724873.570	17517523098752.365
873.336	22944029957065.852	21050702661338.039	17308503292450.461
873.669	22580319396489.156	20752014022147.328	17014800640418.117
874.002	22170572059554.984	20393721724456.090	16747995022171.393
874.334	21650419884745.195	19959148734538.547	16353714924639.240
874.667	21119456270210.437	19429604672092.973	15952041737977.475
875.000	20550814548959.590	18905115360315.734	15502126619349.967
875.333	19937139856230.727	18386678703413.437	15079056225933.707
875.665	19331366345598.824	17874957070230.402	14639961766318.326
875.998	18662154923005.773	17276175075999.107	14142367060708.281
876.331	17954897446926.187	16618072437355.562	13592613070791.789
876.663	17248491431047.172	15949503867557.254	13055934396007.613
876.995	16554440282162.203	15331148460488.803	12531535359672.068
877.328	15843166963942.596	14651445777731.877	11954379164480.637
877.660	15095983192622.916	13940575441989.311	11394708482895.105
877.992	14294238058161.352	13207831038094.934	10768654683727.131
878.325	13580915275217.090	12520288929821.855	10206413424104.645
878.657	12807618204443.811	11840817578952.445	9616261440322.488
878.989	12171806893564.443	11221920875124.021	9120011225482.535
879.321	11505064622926.834	10623969139102.611	8656606167306.961
879.653	10869811530012.252	10029128921093.701	8177459137243.553
879.985	10243883849205.982	9425580442655.488	7731188921331.946
880.317	9636291993709.918	8884358289821.381	7267735923081.161
880.648	9093845239791.240	8374041426971.592	6833687973556.146
880.980	8557427951187.283	7918091682818.357	6457570010579.855
881.312	8080993885978.812	7455911907954.396	6097380673546.563
881.644	7633703412294.845	7024464479904.187	5774519679575.597
881.975	7222435185575.904	6620046147586.734	5472583796597.267
882.307	6833190151684.765	6263153114804.091	5153776571281.782
882.638	6445494104970.739	5965115128937.206	4893144734477.720
882.969	6075089415130.583	5643234326256.201	4592246072198.480
883.301	5725552251521.366	5342922988194.433	4350878139427.622
883.632	5431087664740.217	5029884623524.560	4095493479954.737
883.963	5173800452188.003	4790207502946.914	3899214302178.789
884.295	4913502890204.448	4548120415291.458	3700736194910.022
884.626	4665321615590.175	4333751896764.696	3534512390662.272
884.957	4430031725635.590	4121782632318.658	3359131233458.852
885.288	4218220334434.645	3926414458966.078	3187849317015.842
885.619	4018276821855.102	3742710421748.589	3032141284526.947
885.950	3809081565948.596	3530650610228.983	2869607287658.625
886.280	3626514354495.869	3344151825671.717	2724625509161.003
886.611	3467560413194.938	3191971330036.914	2589804278144.510
886.942	3288982677231.701	3036938105164.347	2452200809581.297
887.273	3118876056850.706	2884176698424.885	2323754509537.125
887.603	2952990356589.671	2720822321719.331	2206162029385.097
887.934	2783795759693.108	2577549593014.969	2095395343307.380
888.264	2649648638743.704	2428752897118.500	1990322797320.999
888.595	2503600038244.002	2288903880349.373	1887221735150.241
888.925	2393906144153.512	2172295919634.611	1786635127252.787
889.255	2248098009675.941	2069976977030.384	1697963714239.066
889.586	2124015017242.341	1961556333219.691	1601378169286.433
889.916	2021472554850.464	1853324969650.729	1526054393482.721
890.246	1920355159655.093	1752967880307.152	1448680018589.599
890.576	1824865185654.744	1668984720100.536	1369773194046.774
890.906	1725028909210.515	1579354425969.289	1293053682760.358
891.236	1613973476270.647	1472891664056.371	1206587666835.646
891.566	1502660401164.212	1367541876589.399	1120768983059.692
891.896	1395104688846.056	1294519226300.354	1060417841002.211
892.226	1306359081849.550	1210486424057.791	988470829899.242
892.555	1220043608168.229	1157130856286.401	929663455875.660
892.885	1140148878328.967	1070830604409.895	847873124032.782
893.215	1078315708280.742	997636644296.134	798114613737.319
893.544	1006593007486.582	915721020403.362	756728615809.193
893.874	941790846552.401	852132397109.177	704975587793.427
894.203	875283935191.185	799404205388.093	653376138105.367
894.533	809931541930.562	746380698036.495	598982451629.403
894.862	747336267346.469	689221512670.101	558764048518.280
895.191	683060666217.026	633928217667.532	515536132488.354
895.520	634227752542.762	586681653323.230	477006154303.882
895.850	590343908371.737	551588000599.961	448241743299.509
896.179	527273460219.553	501911756448.239	397821306096.720
896.508	472461461167.615	447335843348.488	364415180294.617
896.837	429241827437.569	398388091232.958	320813757586.221
897.166	395198070544.675	365419867120.126	308611234598.423
897.495	357470235967.442	336941412823.164	268878316467.353
897.823	323226918090.038	304649809660.297	245270039300.230
898.152	290562571179.462	281323702274.338	214897623467.442
898.481	266240866262.098	242101023569.090	195745102031.391
898.810	0.000	219492000233.734	0.000
899.138	0.000	0.000	0.000
899.467	0.000	0.000	0.000
899.795	0.000	0.000	0.000
900.124	0.000	0.000	0.000
900.452	0.000	0.000	0.000
900.780	0.000	0.000	0.000
901.108	0.000	0.000	0.000
901.437	0.000	0.000	0.000
901.765	0.000	0.000	0.000
902.093	0.000	0.000	0.000
902.421	0.000	0.000	0.000
902.749	0.000	0.000	0.000
903.077	0.000	0.000	0.000
903.405	0.000	0.000	0.000
903.732	0.000	0.000	0.000
904.060	0.000	0.000	0.000
904.388	0.000	0.000	0.000
904.715	0.000	0.000	0.000
905.043	0.000	0.000	0.000
905.370	0.000	0.000	0.000
905.698	0.000	0.000	0.000
906.025	0.000	0.000	0.000
906.353	0.000	0.000	0.000
906.680	0.000	0.000	0.000
907.007	0.000	0.000	0.000
907.334	0.000	0.000	0.000
907.661	0.000	0.000	0.000
907.988	0.000	0.000	0.000
908.315	0.000	0.000	0.000
908.642	0.000	0.000	0.000
908.969	0.000	0.000	0.000
909.296	0.000	0.000	0.000
909.623	0.000	0.000	0.000
909.949	0.000	0.000	0.000
910.276	0.000	0.000	0.000
910.602	0.000	0.000	0.000
910.929	0.000	0.000	0.000
911.255	0.000	0.000	0.000
911.582	0.000	0.000	0.000
911.908	0.000	0.000	0.000
912.234	0.000	0.000	0.000
912.561	0.000	0.000	0.000
912.887	0.000	0.000	0.000
913.213	0.000	0.000	0.000
913.539	0.000	0.000	0.000
913.865	0.000	0.000	0.000
914.191	0.000	0.000	0.000
914.517	0.000	0.000	0.000
914.842	0.000	0.000	0.000
915.168	0.000	0.000	0.000
915.494	0.000	0.000	0.000
915.819	0.000	0.000	0.000
916.145	0.000	0.000	0.000
916.471	0.000	0.000	0.000
916.796	0.000	0.000	0.000
917.121	0.000	0.000	0.000
917.447	0.000	0.000	0.000
917.772	0.000	0.000	0.000
918.097	0.000	0.000	0.000
918.422	0.000	0.000	0.000
918.748	0.000	0.000	0.000
919.073	0.000	0.000	0.000
919.398	0.000	0.000	0.000
919.722	0.000	0.000	0.000
920.047	0.000	0.000	0.000
920.372	0.000	0.000	0.000
920.697	0.000	0.000	0.000
921.022	0.000	0.000	0.000
921.346	0.000	0.000	0.000
921.671	0.000	0.000	0.000
921.995	0.000	0.000	0.000
922.320	0.000	0.000	0.000
922.644	0.000	0.000	0.000
922.969	0.000	0.000	0.000
923.293	0.000	0.000	0.000
923.617	0.000	0.000	0.000
923.941	0.000	0.000	0.000
924.265	0.000	0.000	0.000
924.589	0.000	0.000	0.000
924.913	0.000	0.000	0.000
925.237	0.000	0.000	0.000
925.561	0.000	0.000	0.000
925.885	0.000	0.000	0.000
926.209	0.000	0.000	0.000
926.532	0.000	0.000	0.000
926.856	0.000	0.000	0.000
927.180	0.000	0.000	0.000
927.503	0.000	0.000	0.000
927.827	0.000	0.000	0.000
928.150	0.000	0.000	0.000
928.473	0.000	0.000	0.000
928.797	0.000	0.000	0.000
929.120	0.000	0.000	0.000
929.443	0.000	0.000	0.000
929.766	0.000	0.000	0.000
930.089	0.000	0.000	0.000
930.412	0.000	0.000	0.000
930.735	0.000	0.000	0.000
931.058	0.000	0.000	0.000
931.381	0.000	0.000	0.000
931.704	0.000	0.000	0.000
932.026	0.000	0.000	0.000
932.349	0.000	0.000	0.000
932.671	0.000	0.000	0.000
932.994	0.000	0.000	0.000
933.316	0.000	0.000	0.000
933.639	0.000	0.000	0.000
933.961	0.000	0.000	0.000
934.283	0.000	0.000	0.000
934.606	0.000	0.000	0.000
934.928	0.000	0.000	0.000
935.250	0.000	0.000	0.000
935.572	0.000	0.000	0.000
935.894	0.000	0.000	0.000
936.216	0.000	0.000	0.000
936.538	0.000	0.000	0.000
936.859	0.000	0.000	0.000
937.181	0.000	0.000	0.000
937.503	0.000	0.000	0.000
937.825	0.000	0.000	0.000
938.146	0.000	0.000	0.000
938.468	0.000	0.000	0.000
938.789	0.000	0.000	0.000
939.110	0.000	0.000	0.000
939.432	0.000	0.000	0.000
939.753	0.000	0.000	0.000
940.074	0.000	0.000	0.000
940.395	0.000	0.000	0.000
940.716	0.000	0.000	0.000
941.038	0.000	0.000	0.000
941.358	0.000	0.000	0.000
941.679	0.000	0.000	0.000
942.000	0.000	0.000	0.000
942.321	0.000	0.000	0.000
942.642	0.000	0.000	0.000
942.962	0.000	0.000	0.000
943.283	0.000	0.000	0.000
943.604	0.000	0.000	0.000
943.924	0.000	0.000	0.000
944.245	0.000	0.000	0.000
944.565	0.000	0.000	0.000
944.885	0.000	0.000	0.000
945.205	0.000	0.000	0.000
945.526	0.000	0.000	0.000
945.846	0.000	0.000	0.000
946.166	0.000	0.000	0.000
946.486	0.000	0.000	0.000
946.806	0.000	0.000	0.000
947.126	0.000	0.000	0.000
947.446	0.000	0.000	0.000
947.765	0.000	0.000	0.000
948.085	0.000	0.000	0.000
948.405	0.000	0.000	0.000
948.724	0.000	0.000	0.000
949.044	0.000	0.000	0.000
949.363	0.000	0.000	0.000
949.683	0.000	0.000	0.000
950.002	0.000	0.000	0.000
950.321	0.000	0.000	0.000
950.641	0.000	0.000	0.000
950.960	0.000	0.000	0.000
951.279	0.000	0.000	0.000
951.598	0.000	0.000	0.000
951.917	0.000	0.000	0.000
952.236	0.000	0.000	0.000
952.555	0.000	0.000	0.000
952.874	0.000	0.000	0.000
953.192	0.000	0.000	0.000
953.511	0.000	0.000	0.000
953.830	0.000	0.000	0.000
954.148	0.000	0.000	0.000
954.467	0.000	0.000	0.000
954.785	0.000	0.000	0.000
955.104	0.000	0.000	0.000
955.422	0.000	0.000	0.000
955.740	0.000	0.000	0.000
956.059	0.000	0.000	0.000
956.377	0.000	0.000	0.000
956.695	0.000	0.000	0.000
957.013	0.000	0.000	0.000
957.331	0.000	0.000	0.000
957.649	0.000	0.000	0.000
957.967	0.000	0.000	0.000
958.284	0.000	0.000	0.000
958.602	0.000	0.000	0.000
958.920	0.000	0.000	0.000
959.238	0.000	0.000	0.000
959.555	0.000	0.000	0.000
959.873	0.000	0.000	0.000
960.190	0.000	0.000	0.000
960.507	0.000	0.000	0.000
960.825	0.000	0.000	0.000
961.142	0.000	0.000	0.000
961.459	0.000	0.000	0.000
961.776	0.000	0.000	0.000
962.093	0.000	0.000	0.000
962.410	0.000	0.000	0.000
962.727	0.000	0.000	0.000
963.044	0.000	0.000	0.000
963.361	0.000	0.000	0.000
963.678	0.000	0.000	0.000
963.995	0.000	0.000	0.000
964.311	0.000	0.000	0.000
964.628	0.000	0.000	0.000
964.944	0.000	0.000	0.000
965.261	0.000	0.000	0.000
965.577	0.000	0.000	0.000
965.894	0.000	0.000	0.000
966.210	0.000	0.000	0.000
966.526	0.000	0.000	0.000
966.842	0.000	0.000	0.000
967.158	0.000	0.000	0.000
967.474	0.000	0.000	0.000
967.790	0.000	0.000	0.000
968.106	0.000	0.000	0.000
968.422	0.000	0.000	0.000
968.738	0.000	0.000	0.000
969.054	0.000	0.000	0.000
969.369	0.000	0.000	0.000
969.685	0.000	0.000	0.000
970.001	0.000	0.000	0.000
970.316	0.000	0.000	0.000
970.632	0.000	0.000	0.000
970.947	0.000	0.000	0.000
971.262	0.000	0.000	0.000
971.577	0.000	0.000	0.000
971.893	0.000	0.000	0.000
972.208	0.000	0.000	0.000
972.523	0.000	0.000	0.000
972.838	0.000	0.000	0.000
973.153	0.000	0.000	0.000
973.468	0.000	0.000	0.000
973.783	0.000	0.000	0.000
974.097	0.000	0.000	0.000
974.412	0.000	0.000	0.000
974.727	0.000	0.000	0.000
975.041	0.000	0.000	0.000
975.356	0.000	0.000	0.000
975.670	0.000	0.000	0.000
975.985	0.000	0.000	0.000
976.299	0.000	0.000	0.000
976.613	0.000	0.000	0.000
976.928	0.000	0.000	0.000
977.242	0.000	0.000	0.000
977.556	0.000	0.000	0.000
977.870	0.000	0.000	0.000
978.184	0.000	0.000	0.000
978.498	0.000	0.000	0.000
978.812	0.000	0.000	0.000
979.125	0.000	0.000	0.000
979.439	0.000	0.000	0.000
979.753	0.000	0.000	0.000
980.066	0.000	0.000	0.000
980.380	0.000	0.000	0.000
980.693	0.000	0.000	0.000
981.007	0.000	0.000	0.000
981.320	0.000	0.000	0.000
981.634	0.000	0.000	0.000
981.947	0.000	0.000	0.000
982.260	0.000	0.000	0.000
982.573	0.000	0.000	0.000
982.886	0.000	0.000	0.000
983.199	0.000	0.000	0.000
983.512	0.000	0.000	0.000
983.825	0.000	0.000	0.000
984.138	0.000	0.000	0.000
984.451	0.000	0.000	0.000
984.763	0.000	0.000	0.000
985.076	0.000	0.000	0.000
985.388	0.000	0.000	0.000
985.701	0.000	0.000	0.000
986.013	0.000	0.000	0.000
986.326	0.000	0.000	0.000
986.638	0.000	0.000	0.000
986.950	0.000	0.000	0.000
987.263	0.000	0.000	0.000
987.575	0.000	0.000	0.000
987.887	0.000	0.000	0.000
988.199	0.000	0.000	0.000
988.511	0.000	0.000	0.000
988.823	0.000	0.000	0.000
989.135	0.000	0.000	0.000
989.446	0.000	0.000	0.000
989.758	0.000	0.000	0.000
990.070	0.000	0.000	0.000
990.381	0.000	0.000	0.000
990.693	0.000	0.000	0.000
991.004	0.000	0.000	0.000
991.316	0.000	0.000	0.000
991.627	0.000	0.000	0.000
991.938	0.000	0.000	0.000
992.249	0.000	0.000	0.000
992.561	0.000	0.000	0.000
992.872	0.000	0.000	0.000
993.183	0.000	0.000	0.000
993.494	0.000	0.000	0.000
993.805	0.000	0.000	0.000
994.115	0.000	0.000	0.000
994.426	0.000	0.000	0.000
994.737	0.000	0.000	0.000
995.048	0.000	0.000	0.000
995.358	0.000	0.000	0.000
995.669	0.000	0.000	0.000
995.979	0.000	0.000	0.000
996.290	0.000	0.000	0.000
996.600	0.000	0.000	0.000
996.910	0.000	0.000	0.000
997.220	0.000	0.000	0.000
997.531	0.000	0.000	0.000
997.841	0.000	0.000	0.000
998.151	0.000	0.000	0.000
998.461	0.000	0.000	0.000
998.771	0.000	0.000	0.000
999.081	0.000	0.000	0.000
999.390	0.000	0.000	0.000
999.700	0.000	0.000	0.000
